t,ax,ay,az,wx,wy,wz
0.000000000,0.445200002,-0.002645952,9.874813238,0.003672893,0.115104275,0.262206630
0.005000000,0.394061325,0.002023596,9.903609446,0.017221961,0.115008403,0.263753007
0.010000000,0.316928789,-0.060591321,9.902178425,0.013480835,0.119522341,0.263775223
0.015000000,0.428406708,-0.011101692,9.923678225,0.009628108,0.125842200,0.271820710
0.020000000,0.290738981,-0.030214181,9.932200306,0.015060838,0.112752016,0.258719697
0.025000000,0.428051979,0.015920719,9.942818099,0.000956045,0.119057690,0.265442351
0.030000000,0.345249775,0.050000706,9.921027675,0.009188926,0.117020374,0.256580640
0.035000000,0.322017469,0.028783851,9.890234388,0.009095754,0.120266163,0.267216609
0.040000000,0.321959223,-0.103616984,9.955522073,0.006751335,0.115578435,0.265177375
0.045000000,0.358322535,-0.087614528,9.983018944,0.017185261,0.123480513,0.267898269
0.050000000,0.246340363,-0.036478531,9.883731352,0.008785520,0.114163792,0.263403816
0.055000000,0.193009087,0.012422987,9.929312293,0.016468045,0.121373337,0.263990306
0.060000000,0.290621265,-0.044657784,9.869752628,0.012194430,0.119566452,0.254663303
0.065000000,0.272335908,-0.060396414,10.003055718,0.014864496,0.120182466,0.254648848
0.070000000,0.323457096,-0.055783234,9.838851193,0.020658301,0.110205244,0.260887876
0.075000000,0.262662290,0.021440754,9.930363921,0.013539363,0.110269961,0.255554106
0.080000000,0.256732315,-0.018358224,9.879729308,0.013266985,0.112064533,0.265729157
0.085000000,0.280973278,0.068143526,9.873720528,0.019616998,0.119222924,0.264928666
0.090000000,0.235461062,-0.013156714,9.888104084,0.023960922,0.125327907,0.261306903
0.095000000,0.198717161,-0.105862125,9.824722990,0.012718313,0.104917533,0.256377096
0.100000000,0.308717893,-0.092458217,9.953644365,0.022194107,0.117251659,0.262904786
0.105000000,0.248679052,-0.007177451,9.882919682,0.017394751,0.113608265,0.257943777
0.110000000,0.244782185,-0.082132286,9.849135838,0.025816230,0.123050742,0.260204618
0.115000000,0.204679268,-0.007841123,9.854649826,0.011934161,0.124091545,0.265831959
0.120000000,0.290392161,-0.011962534,9.941175095,0.000648012,0.122292421,0.261941362
0.125000000,0.285363238,-0.098585700,9.964892596,0.020798798,0.117078543,0.260608682
0.130000000,0.265276591,-0.048298110,9.934466490,0.018426205,0.121536568,0.260602858
0.135000000,0.227123618,-0.095804802,9.973208419,0.012184805,0.116121548,0.263229064
0.140000000,0.289492376,-0.010360356,9.837367614,0.031215664,0.119453644,0.257649287
0.145000000,0.130058798,0.059148704,9.961215867,0.019588208,0.117460709,0.257211564
0.150000000,0.229190096,0.028227779,9.859138147,0.018878531,0.126385347,0.265641601
0.155000000,0.146341787,-0.063584225,9.865053242,0.019171182,0.116748829,0.263881673
0.160000000,0.259597783,-0.093283834,9.931989065,0.024884274,0.120090567,0.264958843
0.165000000,0.154074299,-0.029480821,9.916427144,0.028580151,0.120381373,0.247216960
0.170000000,0.092344894,0.032668488,9.967931937,0.021990514,0.132656816,0.260301701
0.175000000,0.208004322,-0.008474874,9.906306207,0.029274925,0.114755586,0.268816407
0.180000000,0.207922619,0.029292049,9.887194936,0.024818861,0.125191698,0.261963123
0.185000000,0.102949777,0.024718570,9.910150315,0.028618461,0.115996044,0.252344147
0.190000000,0.126102785,-0.050043858,9.789288529,0.020797679,0.121631706,0.269610004
0.195000000,0.161966516,0.056565136,9.890258567,0.025953323,0.119109902,0.256147719
0.200000000,0.061182912,-0.012607044,9.979488939,0.028149692,0.114285706,0.258384482
0.205000000,0.107347977,-0.022452359,9.887696646,0.025619006,0.129345910,0.257170644
0.210000000,0.078671162,-0.040145924,9.951658410,0.024126223,0.132104421,0.263443018
0.215000000,0.149882113,-0.037155999,9.835971042,0.028951428,0.117356828,0.253433096
0.220000000,0.101700970,-0.019622680,9.958163217,0.028069455,0.127216286,0.259468377
0.225000000,0.144370281,-0.042727496,9.872288796,0.026003467,0.123991031,0.269495736
0.230000000,0.128546467,-0.026298906,9.968852830,0.023278144,0.119525726,0.268286710
0.235000000,0.075999716,-0.004907947,9.909946162,0.024673024,0.119208482,0.264045821
0.240000000,0.109543650,-0.021868212,9.863170103,0.021480369,0.115830776,0.262149632
0.245000000,0.080970578,0.019265376,9.847802999,0.027352578,0.125076887,0.261808849
0.250000000,0.087641292,0.059154200,10.005611749,0.030375989,0.128309989,0.266414470
0.255000000,-0.013695560,-0.016019206,9.976945352,0.032072833,0.126557046,0.266409783
0.260000000,0.020805607,-0.044935531,9.884734098,0.019185122,0.124571805,0.255554116
0.265000000,0.093446830,-0.032477440,9.952449866,0.027621532,0.120789885,0.264854859
0.270000000,0.030817530,0.044838882,9.864874414,0.033082962,0.123512473,0.262583811
0.275000000,0.029446359,0.005855406,9.857417984,0.026848519,0.130897644,0.262632176
0.280000000,-0.014551992,-0.103899343,9.861653878,0.040398691,0.130990732,0.260141151
0.285000000,-0.107036707,-0.024654488,9.922533570,0.035031386,0.125371071,0.258695854
0.290000000,-0.005188393,-0.109017376,9.942335877,0.037158572,0.127475263,0.266441455
0.295000000,-0.067253165,0.036610706,10.007860099,0.028609979,0.124345986,0.258412729
0.300000000,-0.030516942,-0.037839229,9.880568006,0.026569562,0.128709547,0.259844220
0.305000000,0.021554330,0.116519109,9.925519826,0.038282783,0.121374046,0.267504765
0.310000000,-0.051351784,0.025449255,9.952447199,0.036339919,0.113366960,0.266861527
0.315000000,-0.080595439,-0.086298924,9.857855163,0.042076894,0.124379127,0.259987439
0.320000000,-0.079377157,0.013893468,9.954823413,0.029951846,0.122858600,0.256662906
0.325000000,-0.047922114,-0.028110522,9.910717440,0.035741226,0.121944449,0.263982973
0.330000000,-0.027976949,-0.036115252,9.971186937,0.037033942,0.131544722,0.255504530
0.335000000,-0.048336629,-0.020772057,9.924659322,0.040918587,0.121172526,0.261829860
0.340000000,-0.098904328,0.034631369,9.910045763,0.037135941,0.121315744,0.265835023
0.345000000,-0.039523097,0.029038283,9.928674111,0.040623439,0.124370540,0.262009517
0.350000000,-0.056921139,0.017460534,9.974382829,0.042583006,0.125738242,0.259448623
0.355000000,-0.081684099,0.001942932,9.948724797,0.035416830,0.123886078,0.264490134
0.360000000,-0.044702670,0.025352344,9.889884554,0.037724385,0.120092460,0.256959832
0.365000000,-0.120617929,0.085306592,9.944329505,0.030107361,0.131501556,0.256383416
0.370000000,-0.115766944,0.034532333,9.886325050,0.038196491,0.130404234,0.263308649
0.375000000,-0.100213411,0.022694092,9.857571131,0.038736609,0.121303186,0.257086360
0.380000000,-0.118925302,-0.053548262,9.895983589,0.042623444,0.129541830,0.256534255
0.385000000,-0.258265778,-0.000140140,9.901447011,0.038175581,0.118762408,0.260455231
0.390000000,-0.245806424,0.011539427,9.952724715,0.039055062,0.119142583,0.263313112
0.395000000,-0.221015088,-0.007852328,9.911365756,0.038712808,0.126493450,0.262074996
0.400000000,-0.111551279,-0.054128892,9.892501016,0.040880222,0.119807546,0.271055888
0.405000000,-0.128445590,0.048659393,9.845885314,0.040067010,0.122264311,0.262624249
0.410000000,-0.197375138,0.004300543,9.967616854,0.044279770,0.130078397,0.268516340
0.415000000,-0.190502083,0.035040616,9.971552236,0.035349759,0.129058302,0.260086346
0.420000000,-0.220163463,0.119689339,9.968166978,0.038880702,0.124416921,0.265472355
0.425000000,-0.155149689,0.187728647,9.905068920,0.038815682,0.128619694,0.267290409
0.430000000,-0.200759655,-0.035176311,10.009841108,0.036871034,0.124937778,0.259747212
0.435000000,-0.296917829,0.070449058,9.843160120,0.033485325,0.134556168,0.255172456
0.440000000,-0.165474145,0.108836751,9.896302701,0.049952194,0.136333822,0.269526419
0.445000000,-0.160892550,0.056646589,9.921003012,0.047583526,0.132501738,0.262687482
0.450000000,-0.136156950,0.074473725,9.923588847,0.039427900,0.129384395,0.256418305
0.455000000,-0.197033606,0.117501811,9.946666279,0.046772306,0.125617405,0.261765963
0.460000000,-0.245549732,0.092544775,9.872800621,0.047000671,0.126611389,0.260179235
0.465000000,-0.286315133,0.030760304,9.959564425,0.049887063,0.126707585,0.266074212
0.470000000,-0.190487528,0.081688212,9.824898959,0.050152757,0.128223108,0.262933348
0.475000000,-0.197553233,0.039840105,10.001854026,0.042017114,0.126085680,0.256726683
0.480000000,-0.267241208,0.118261080,9.866574735,0.052275589,0.128321003,0.262388040
0.485000000,-0.280785139,0.102271431,9.948801043,0.049859475,0.129900756,0.255625269
0.490000000,-0.284246193,0.154750483,9.901490605,0.043523151,0.125592681,0.259038797
0.495000000,-0.229230796,0.055435575,9.826764733,0.045109891,0.130159441,0.254784647
0.500000000,-0.224401534,0.058818870,9.899558046,0.042995166,0.129865654,0.252492362
0.505000000,-0.218272649,0.044946537,9.994287885,0.049453243,0.132623034,0.258549727
0.510000000,-0.347712614,0.113807592,9.812597726,0.046519326,0.127200363,0.254725650
0.515000000,-0.347615480,0.092452135,10.009210261,0.053712004,0.133194147,0.260458508
0.520000000,-0.282399846,0.057733146,9.903616317,0.054401813,0.133311484,0.265015019
0.525000000,-0.298671843,0.182521681,9.995602533,0.051153499,0.130544632,0.253220407
0.530000000,-0.279966385,0.113485019,9.909654786,0.050953677,0.135592006,0.256455835
0.535000000,-0.276638870,0.181857655,9.988722770,0.053782653,0.131396938,0.251732711
0.540000000,-0.251691092,0.127361334,9.897355492,0.051878913,0.133782972,0.254224528
0.545000000,-0.270343741,0.125230916,9.844557778,0.050634233,0.130725991,0.261299090
0.550000000,-0.435851605,0.193991893,9.811332490,0.055462128,0.135621271,0.267832395
0.555000000,-0.302970403,0.218329731,9.941063289,0.051851973,0.138052144,0.259801594
0.560000000,-0.349692065,0.051041188,9.911502484,0.061704698,0.129108345,0.258744978
0.565000000,-0.283746208,0.114144962,9.829801251,0.061740137,0.137374530,0.255842461
0.570000000,-0.331075550,0.194112942,9.939877285,0.057881731,0.133931607,0.256032005
0.575000000,-0.416662098,0.133054029,9.902448496,0.057983354,0.133199725,0.263179995
0.580000000,-0.400829783,0.142358494,9.892910036,0.048893427,0.130271978,0.269326858
0.585000000,-0.332848023,0.138298893,9.859143660,0.050500452,0.130173485,0.262967974
0.590000000,-0.326275456,0.150676489,9.936904755,0.053770748,0.132006096,0.251982529
0.595000000,-0.327787310,0.099487805,9.791335929,0.055089745,0.132333411,0.261957315
0.600000000,-0.398208723,0.131039862,9.931060394,0.061337126,0.134180488,0.252519473
0.605000000,-0.340542833,0.075575824,9.953337934,0.057580960,0.123506815,0.259259231
0.610000000,-0.386223521,0.186640528,9.875925440,0.060665115,0.129008621,0.260706706
0.615000000,-0.438000714,0.108242115,9.901897840,0.058120263,0.129025067,0.254229209
0.620000000,-0.361763771,0.150509249,9.906697033,0.056690441,0.139993863,0.253639888
0.625000000,-0.399757288,0.171182006,9.939961078,0.063947754,0.125671247,0.259277560
0.630000000,-0.495953538,0.102853568,9.995031989,0.054344062,0.130130181,0.260214871
0.635000000,-0.454107263,0.251571854,9.818097741,0.064925592,0.133943448,0.264085472
0.640000000,-0.445014866,0.175322747,9.980944517,0.057494877,0.135224886,0.263036922
0.645000000,-0.370990092,0.250297045,9.944216155,0.062958707,0.123789126,0.261995793
0.650000000,-0.538117975,0.120814810,9.836852409,0.059571965,0.137904123,0.263593767
0.655000000,-0.495632191,0.307123412,9.846710449,0.063633699,0.130091774,0.256967385
0.660000000,-0.562564925,0.140550712,9.911291227,0.063619244,0.130905365,0.260462621
0.665000000,-0.517385237,0.155352370,9.961208508,0.071546255,0.129294753,0.250582774
0.670000000,-0.441365728,0.126902460,9.758473309,0.063376511,0.133366212,0.264557458
0.675000000,-0.519585687,0.154675965,9.804002914,0.064088870,0.136377685,0.259807944
0.680000000,-0.599260723,0.117400217,9.894057176,0.064637642,0.133515458,0.259579626
0.685000000,-0.422441525,0.164816131,9.909220674,0.064998150,0.130611208,0.250787305
0.690000000,-0.578102305,0.164421491,9.873358476,0.062176887,0.133222237,0.264362902
0.695000000,-0.598827854,0.171362512,9.935729545,0.063635570,0.130305131,0.267389866
0.700000000,-0.542262229,0.231095814,9.741047261,0.068812265,0.134197336,0.255364209
0.705000000,-0.572834535,0.189740835,9.907722857,0.069047267,0.136006066,0.260283260
0.710000000,-0.517525603,0.229908801,9.895947497,0.055112491,0.140527090,0.265217227
0.715000000,-0.412027286,0.199145297,9.936703202,0.062036093,0.134746200,0.254318813
0.720000000,-0.613136548,0.227168013,9.866523371,0.061528126,0.133546461,0.257828474
0.725000000,-0.567871072,0.177193580,9.818625929,0.055761427,0.127098995,0.256387013
0.730000000,-0.554286648,0.184967207,9.971362575,0.061262417,0.130505947,0.267738017
0.735000000,-0.666918929,0.279826575,9.923980240,0.065903040,0.130386455,0.264255363
0.740000000,-0.643184139,0.184517747,9.933851659,0.071310647,0.135854356,0.264794049
0.745000000,-0.488292713,0.301064528,9.960850136,0.067402221,0.126408582,0.257068952
0.750000000,-0.524856419,0.211730403,9.917394459,0.069625354,0.134825809,0.260033597
0.755000000,-0.639004875,0.219703392,9.883162054,0.067031676,0.136739427,0.254714463
0.760000000,-0.636943156,0.318597659,9.798544784,0.077776117,0.123447408,0.260309873
0.765000000,-0.709216467,0.283806435,9.770254891,0.075828504,0.131992692,0.265252740
0.770000000,-0.687981215,0.264446932,9.958350044,0.075133196,0.133705539,0.259636343
0.775000000,-0.726667651,0.366976685,9.920377753,0.063729860,0.134340947,0.254801652
0.780000000,-0.633422221,0.257317932,9.818100270,0.078250997,0.141652431,0.257581026
0.785000000,-0.653308661,0.272708514,9.982340347,0.072830644,0.123745905,0.261529341
0.790000000,-0.664639543,0.301612197,9.852318994,0.065307306,0.123100281,0.256482400
0.795000000,-0.695535423,0.303984382,9.793094460,0.075628567,0.131783916,0.254580947
0.800000000,-0.703393984,0.282634724,9.959418885,0.073682894,0.129434876,0.258590675
0.805000000,-0.760795919,0.319254206,9.978110485,0.068903093,0.133470545,0.267060100
0.810000000,-0.716839290,0.317037505,9.905746067,0.070885458,0.129951843,0.252236961
0.815000000,-0.571899003,0.305335468,9.866744109,0.072908848,0.126933052,0.266905412
0.820000000,-0.671233748,0.382300708,9.905622170,0.071194387,0.139127753,0.269920454
0.825000000,-0.642197137,0.319057186,9.958209180,0.073889866,0.123659117,0.270073328
0.830000000,-0.688451919,0.331607645,9.921942762,0.075532376,0.136144458,0.266726131
0.835000000,-0.721709360,0.382716206,9.865203913,0.078726401,0.134111723,0.260217483
0.840000000,-0.787621285,0.264349278,9.954061308,0.070506809,0.130397918,0.253054543
0.845000000,-0.751268978,0.362773161,9.914555337,0.080598554,0.144989187,0.263541537
0.850000000,-0.748668382,0.423206649,9.932113799,0.073651533,0.126494529,0.254384141
0.855000000,-0.754069287,0.354486191,9.908768140,0.069390679,0.132222406,0.257976008
0.860000000,-0.798169180,0.332460967,9.949781347,0.076295060,0.140312962,0.248731001
0.865000000,-0.696169949,0.309953311,9.890105377,0.074230125,0.137594317,0.258002133
0.870000000,-0.779846716,0.371567749,9.840380670,0.085524974,0.136065238,0.254994024
0.875000000,-0.768444079,0.403549817,9.837946330,0.078284666,0.144111279,0.261905327
0.880000000,-0.797264352,0.424779420,9.864228736,0.080775774,0.141299602,0.262059517
0.885000000,-0.777638934,0.335464928,9.798984156,0.073387409,0.143693460,0.259436299
0.890000000,-0.839134618,0.453628338,9.866016218,0.077850247,0.132331985,0.263353188
0.895000000,-0.807281016,0.484180013,9.810350664,0.079849367,0.137078206,0.265711487
0.900000000,-0.885046286,0.300568833,9.902291243,0.079450809,0.126295208,0.256990368
0.905000000,-0.792648960,0.450142156,9.990589370,0.084843149,0.134586563,0.263481686
0.910000000,-0.736029831,0.425189792,9.835217780,0.081344637,0.138335716,0.259116591
0.915000000,-0.850792737,0.459474657,9.834797200,0.091635894,0.131605058,0.265038266
0.920000000,-0.860945503,0.344795971,9.815550320,0.088457201,0.131175942,0.256931063
0.925000000,-0.757292964,0.420933173,9.835522677,0.075142852,0.130061823,0.254485106
0.930000000,-0.840048349,0.413855333,9.855885715,0.076225096,0.141354252,0.263126391
0.935000000,-0.858521374,0.459777657,9.830477973,0.078274295,0.138733861,0.262159399
0.940000000,-0.855833123,0.496076984,9.909806641,0.076524224,0.128415574,0.262764859
0.945000000,-0.834907139,0.436960959,9.816561358,0.080977466,0.133131044,0.259703534
0.950000000,-0.939580999,0.498490137,9.848208683,0.074139250,0.143397269,0.265900129
0.955000000,-0.834182521,0.454778558,9.836057310,0.085807262,0.133571531,0.260118913
0.960000000,-0.852330024,0.408097935,9.849086027,0.080120312,0.140905942,0.263012222
0.965000000,-0.877303363,0.394543783,9.892075856,0.084059993,0.141577958,0.261069277
0.970000000,-0.796593447,0.476436740,9.844827962,0.089356959,0.137983937,0.256076301
0.975000000,-0.810156670,0.410011199,9.836124644,0.081918512,0.129386795,0.262416441
0.980000000,-0.898190191,0.381406255,9.807509795,0.084275588,0.135654906,0.256481429
0.985000000,-0.960152406,0.399943343,9.856190555,0.084560443,0.131846838,0.261281851
0.990000000,-0.968566303,0.463955233,9.833966892,0.086415486,0.141802491,0.264202381
0.995000000,-0.901964256,0.552408421,9.813175343,0.087660490,0.135082663,0.253612873
1.000000000,-1.025431066,0.442715602,9.855036624,0.089419639,0.134761335,0.259851337
1.005000000,-0.891234825,0.456506726,9.909137416,0.090774934,0.140904902,0.256154018
1.010000000,-0.903145158,0.428135589,9.858631814,0.082453280,0.136736160,0.251119583
1.015000000,-0.982804160,0.472998782,9.925834751,0.091632717,0.138465100,0.256149316
1.020000000,-0.958770500,0.491584425,9.818295249,0.082089826,0.143330712,0.251954011
1.025000000,-0.958251886,0.439141636,9.822244692,0.095935027,0.142843770,0.256080356
1.030000000,-0.973798218,0.597994435,9.890524176,0.088079549,0.135950306,0.257882410
1.035000000,-0.996140720,0.444359774,9.895879638,0.087248078,0.136791206,0.256875874
1.040000000,-0.948340406,0.649958451,9.910330906,0.083833695,0.130805575,0.260257418
1.045000000,-0.903697014,0.501947606,9.874167152,0.098914027,0.144575378,0.262663579
1.050000000,-1.050645308,0.528128898,9.937741827,0.088904719,0.134136887,0.257665400
1.055000000,-0.980121837,0.437182565,9.853450156,0.088426810,0.142805134,0.259214938
1.060000000,-0.969960009,0.588379005,9.886952407,0.090431327,0.144743120,0.252076258
1.065000000,-0.912670855,0.543324109,9.835316239,0.082943421,0.136256216,0.266069376
1.070000000,-0.956653800,0.532494055,9.823013378,0.103439708,0.133085531,0.260232279
1.075000000,-1.048592394,0.523075745,9.788577372,0.089117743,0.139665852,0.258929435
1.080000000,-1.021107329,0.667633901,9.829919971,0.094180658,0.131714873,0.251209298
1.085000000,-0.978761427,0.554492218,9.839354010,0.093374550,0.147116566,0.250256357
1.090000000,-1.070485705,0.550648203,9.853255895,0.096674174,0.133417891,0.259664745
1.095000000,-1.062161603,0.592340666,9.842786651,0.089481087,0.137248022,0.260337593
1.100000000,-1.103719659,0.573121457,9.899390113,0.106566818,0.140857028,0.253749345
1.105000000,-1.050125453,0.633940196,9.814167468,0.097121185,0.128791316,0.259974825
1.110000000,-1.105508261,0.619145390,9.864058281,0.092953898,0.132829616,0.264543538
1.115000000,-1.106566433,0.635798352,9.679485973,0.098773273,0.128226035,0.271099301
1.120000000,-1.071950153,0.589088467,9.850994502,0.092687989,0.138643118,0.261578683
1.125000000,-1.101070011,0.597453344,9.821381408,0.095682221,0.138659313,0.265503039
1.130000000,-1.025319740,0.689210713,9.754038827,0.088224147,0.146536581,0.265494393
1.135000000,-1.077350990,0.650282155,9.878489519,0.098203428,0.131800293,0.262858019
1.140000000,-1.083916122,0.621198336,9.875161299,0.094256972,0.136423542,0.254805769
1.145000000,-1.181806126,0.694541367,9.798131637,0.100186152,0.132987757,0.265837876
1.150000000,-1.087220638,0.745764589,9.742514745,0.103684209,0.137197056,0.257754755
1.155000000,-1.141871359,0.808134082,9.779005810,0.101146125,0.139941939,0.248565352
1.160000000,-1.089134189,0.695225886,9.894395720,0.098361773,0.142137960,0.263759008
1.165000000,-1.092381612,0.601473962,9.764463881,0.101153296,0.136018935,0.259233643
1.170000000,-1.191798289,0.707843170,9.768702086,0.093629896,0.136821004,0.264855080
1.175000000,-1.126113555,0.689049367,9.852326299,0.109856039,0.133650284,0.255592944
1.180000000,-1.161572579,0.684132333,9.770536444,0.103960668,0.142362617,0.257997532
1.185000000,-1.245531712,0.735884283,9.719180648,0.101448671,0.141555723,0.255447939
1.190000000,-1.130732546,0.723041777,9.784064166,0.096035840,0.133633279,0.251249041
1.195000000,-1.111004527,0.659675513,9.798621887,0.099773267,0.134416698,0.251935665
1.200000000,-1.128403425,0.756681381,9.841070121,0.100629337,0.143758394,0.255367168
1.205000000,-1.145247299,0.729193284,9.765230009,0.099501459,0.139601101,0.266401803
1.210000000,-1.134812379,0.698190843,9.835338455,0.093340617,0.141461251,0.264977760
1.215000000,-1.251666926,0.657686908,9.856264924,0.094819143,0.129027228,0.254729612
1.220000000,-1.193631400,0.770845173,9.873632246,0.105727669,0.144838729,0.259241102
1.225000000,-1.291622661,0.807571360,9.790270599,0.109974921,0.150136106,0.257755562
1.230000000,-1.157720297,0.650572847,9.808850727,0.090047207,0.144774309,0.246828606
1.235000000,-1.194687661,0.770209713,9.790179655,0.105002041,0.135445234,0.256834014
1.240000000,-1.200186495,0.848446351,9.826936198,0.104385775,0.139922412,0.251879689
1.245000000,-1.240034073,0.815606619,9.763666282,0.104596207,0.137067051,0.260299942
1.250000000,-1.254350259,0.835520544,9.775055164,0.099289907,0.143556117,0.256114099
1.255000000,-1.213515764,0.883394837,9.794253999,0.112850414,0.127448794,0.264984999
1.260000000,-1.320233188,0.799326366,9.750385506,0.107373221,0.129270754,0.252616933
1.265000000,-1.381841073,0.759447157,9.834736590,0.114182627,0.134439510,0.263144533
1.270000000,-1.183715395,0.844510617,9.777079115,0.109639663,0.140719814,0.256077834
1.275000000,-1.220278230,0.774574076,9.813204389,0.105790179,0.139281084,0.259353614
1.280000000,-1.377207238,0.865065653,9.903881439,0.102613109,0.152095117,0.248442940
1.285000000,-1.235256479,0.812827525,9.685573521,0.110983470,0.146025700,0.255057349
1.290000000,-1.202184212,0.858623841,9.787627928,0.112030883,0.145978563,0.259254872
1.295000000,-1.238733742,0.799870742,9.776538974,0.107640191,0.136578976,0.270070401
1.300000000,-1.241629157,0.797347508,9.768249179,0.112229334,0.135145723,0.270494267
1.305000000,-1.271168377,0.848008360,9.815765783,0.111501661,0.144528787,0.254830077
1.310000000,-1.351702801,0.800304079,9.819695349,0.111819157,0.136275186,0.255782471
1.315000000,-1.289193134,0.863827133,9.774953805,0.112733027,0.143646448,0.256673559
1.320000000,-1.196290147,0.821075259,9.828442931,0.105579831,0.140044541,0.264929101
1.325000000,-1.369107219,0.959310675,9.782170016,0.117259802,0.140428154,0.257971073
1.330000000,-1.409168805,0.979619788,9.805911989,0.106097963,0.128765809,0.257410183
1.335000000,-1.371080618,0.866016108,9.726536609,0.109682443,0.138037040,0.258011974
1.340000000,-1.326261843,0.824506912,9.830476142,0.109586390,0.135926073,0.257231047
1.345000000,-1.327809815,0.894243797,9.785813223,0.120995000,0.134345036,0.258321743
1.350000000,-1.353781435,0.885470143,9.677961626,0.110217111,0.133696736,0.246951193
1.355000000,-1.327942549,0.903745603,9.745506866,0.115449366,0.139543571,0.264977738
1.360000000,-1.416362571,1.049668202,9.765890344,0.111644675,0.152596408,0.255450729
1.365000000,-1.351518458,0.881291710,9.750590756,0.107473962,0.135486651,0.265630635
1.370000000,-1.356170385,0.939224540,9.770900030,0.127345001,0.140228520,0.251393809
1.375000000,-1.382695982,1.021802236,9.714003904,0.115407897,0.152507353,0.256147579
1.380000000,-1.391875980,0.986117070,9.765549315,0.105027044,0.143748897,0.259509452
1.385000000,-1.450757405,0.942586504,9.774469861,0.106091033,0.143699020,0.249121045
1.390000000,-1.454308221,1.080581193,9.677362049,0.119680991,0.143207239,0.255510279
1.395000000,-1.387884363,0.976477705,9.796470812,0.119201239,0.147294596,0.259045809
1.400000000,-1.377385273,0.934759199,9.804337937,0.114323587,0.142600332,0.254620385
1.405000000,-1.449495950,1.085358520,9.714519885,0.112667204,0.132740910,0.247220765
1.410000000,-1.375155199,1.002359702,9.787147952,0.125258541,0.142463421,0.253817749
1.415000000,-1.476079218,0.955446823,9.764021217,0.115704925,0.142296051,0.254018386
1.420000000,-1.501306734,1.013219259,9.696698737,0.122732239,0.144253878,0.255607773
1.425000000,-1.465611958,1.016689236,9.770634246,0.119073261,0.145975209,0.253947731
1.430000000,-1.502910893,1.026252474,9.714231682,0.115732248,0.141229951,0.263959008
1.435000000,-1.540855090,1.056380280,9.683068954,0.117517326,0.136641540,0.259733069
1.440000000,-1.496053156,1.029898770,9.763376383,0.129269178,0.136922906,0.258459886
1.445000000,-1.486005273,0.950138903,9.762219825,0.121439617,0.133498284,0.252887565
1.450000000,-1.477389805,1.042287887,9.775685393,0.123364972,0.143571600,0.255598735
1.455000000,-1.434517447,1.020761345,9.748879067,0.119529867,0.148921605,0.256887299
1.460000000,-1.476692105,0.981327191,9.698450299,0.121119876,0.137319207,0.257907442
1.465000000,-1.470122204,1.075978879,9.694043879,0.114837213,0.139575822,0.259220083
1.470000000,-1.426640107,1.096966019,9.764043252,0.120729107,0.143140712,0.251453563
1.475000000,-1.546544172,1.116818869,9.804385824,0.121514049,0.147256184,0.255991825
1.480000000,-1.482605797,1.220712909,9.686810954,0.120032595,0.139046055,0.258181715
1.485000000,-1.608710350,1.055388478,9.671621109,0.119457167,0.136398451,0.259824042
1.490000000,-1.496635079,1.121178419,9.711811977,0.125788344,0.142781427,0.256473783
1.495000000,-1.562189489,1.118249925,9.751429081,0.112634006,0.139586981,0.252650244
1.500000000,-1.562604152,1.128930630,9.752138331,0.118186846,0.143891825,0.261316329
1.505000000,-1.581696396,1.126941050,9.664159737,0.125001446,0.143058072,0.259528045
1.510000000,-1.570655462,1.114073898,9.730492461,0.131522034,0.145308331,0.253464428
1.515000000,-1.499879430,1.159078640,9.707496968,0.117879635,0.144475188,0.252133279
1.520000000,-1.482672966,1.167405520,9.733133770,0.123544748,0.132682533,0.261191649
1.525000000,-1.561439238,1.191120756,9.656924010,0.123306923,0.137278067,0.260847514
1.530000000,-1.533562665,1.133572501,9.702211944,0.117284490,0.136830981,0.251883396
1.535000000,-1.535752839,1.286223803,9.750310193,0.126987471,0.141557977,0.258974616
1.540000000,-1.534141387,1.175607982,9.690147102,0.130623663,0.137095600,0.264849267
1.545000000,-1.608072718,1.240527463,9.782375401,0.120606759,0.139474280,0.254360021
1.550000000,-1.596196726,1.178418350,9.706421348,0.131337300,0.130321197,0.259090136
1.555000000,-1.507798451,1.304025172,9.699381467,0.131481489,0.127437473,0.253595153
1.560000000,-1.586004224,1.213308183,9.738380897,0.125954940,0.138138348,0.251849870
1.565000000,-1.675197515,1.329032726,9.767892202,0.123070042,0.141041252,0.252822987
1.570000000,-1.577563318,1.299745537,9.699754428,0.135444313,0.143600671,0.255939832
1.575000000,-1.573817218,1.328186117,9.652502531,0.121412196,0.142480287,0.256818884
1.580000000,-1.631829854,1.323357710,9.728296356,0.132558303,0.145746928,0.259254237
1.585000000,-1.560373261,1.296219289,9.725059103,0.118523264,0.140205620,0.255169206
1.590000000,-1.658178258,1.328849479,9.647331951,0.135568602,0.143843538,0.250909697
1.595000000,-1.668311024,1.296561933,9.614832682,0.126224720,0.138375556,0.251247473
1.600000000,-1.727107733,1.315538928,9.697932390,0.124706159,0.135673319,0.257843635
1.605000000,-1.747081187,1.279475272,9.629066676,0.137346018,0.144739791,0.253691749
1.610000000,-1.620507961,1.262050017,9.696897548,0.137347273,0.136924606,0.254279934
1.615000000,-1.614367534,1.383554040,9.623995650,0.140168598,0.149772407,0.253268724
1.620000000,-1.678168927,1.319982626,9.707977146,0.129281420,0.140175384,0.254655789
1.625000000,-1.683897373,1.386859116,9.729035606,0.126927581,0.139805528,0.255245201
1.630000000,-1.717175670,1.351122047,9.708350345,0.127521783,0.138331922,0.254020647
1.635000000,-1.680467343,1.454563641,9.612910960,0.135573788,0.138354206,0.256084222
1.640000000,-1.708940739,1.338208205,9.682311440,0.128362346,0.139054991,0.248337516
1.645000000,-1.684411695,1.412342668,9.594355128,0.133776659,0.145570634,0.253058211
1.650000000,-1.743382618,1.375031902,9.649625384,0.128434724,0.142314992,0.261087852
1.655000000,-1.804376578,1.404382398,9.692850825,0.141315445,0.140853023,0.259260231
1.660000000,-1.765360995,1.340869942,9.596996629,0.129645930,0.146221312,0.253877662
1.665000000,-1.656606945,1.392730930,9.733926574,0.132922972,0.141552506,0.260111806
1.670000000,-1.666342207,1.444964806,9.606855318,0.137566908,0.143152686,0.262193402
1.675000000,-1.704758644,1.473471825,9.640524866,0.134134357,0.145314528,0.253957226
1.680000000,-1.805545088,1.468280038,9.583258551,0.140568875,0.146242795,0.261798498
1.685000000,-1.733161083,1.411210581,9.600718245,0.141561698,0.135878296,0.259624486
1.690000000,-1.683392126,1.412100447,9.569699550,0.143621561,0.137602508,0.247816448
1.695000000,-1.789531870,1.506666044,9.686673158,0.145002748,0.152281238,0.250520270
1.700000000,-1.711473487,1.446842875,9.729639477,0.140623560,0.138043545,0.258360711
1.705000000,-1.709769474,1.494110527,9.600767759,0.128886412,0.135699561,0.255506094
1.710000000,-1.714049256,1.503824271,9.658161580,0.138653746,0.139634013,0.254907893
1.715000000,-1.661631111,1.525845624,9.692571965,0.132365697,0.134544848,0.256330134
1.720000000,-1.891242966,1.525148718,9.597969107,0.130276541,0.143601932,0.248335833
1.725000000,-1.846302881,1.599454297,9.566045455,0.145181855,0.140053126,0.257431282
1.730000000,-1.831176315,1.516518998,9.603075718,0.136809433,0.136730140,0.246877829
1.735000000,-1.882353099,1.570935863,9.674620936,0.147943785,0.140538097,0.255661007
1.740000000,-1.796660834,1.461897915,9.621904109,0.143819444,0.148184711,0.247455764
1.745000000,-1.779541347,1.456269805,9.613202779,0.139978064,0.138559527,0.252262715
1.750000000,-1.763748256,1.616896750,9.701937398,0.126668160,0.139585568,0.250267219
1.755000000,-1.926722598,1.580970779,9.614791759,0.137880878,0.143062493,0.257036300
1.760000000,-1.888088711,1.639129363,9.581798013,0.139294908,0.140391461,0.251634814
1.765000000,-1.831833385,1.687426843,9.615634968,0.138438252,0.137800126,0.255998396
1.770000000,-1.818008001,1.573706987,9.664118973,0.139265537,0.139232192,0.244917639
1.775000000,-1.825234560,1.578865680,9.630174691,0.135381231,0.147016234,0.256917568
1.780000000,-1.774534113,1.624638100,9.690787866,0.142313492,0.142809876,0.252846424
1.785000000,-1.739774467,1.602840715,9.575532846,0.146927755,0.146451509,0.249503351
1.790000000,-1.891041926,1.680863505,9.615034336,0.136372394,0.140760781,0.262288149
1.795000000,-1.917492456,1.706436729,9.578980900,0.138230608,0.141339461,0.268099703
1.800000000,-1.811602299,1.602626750,9.532118908,0.137964415,0.141635224,0.254293060
1.805000000,-1.903197453,1.583765488,9.609441262,0.141713694,0.137590410,0.255475095
1.810000000,-1.893633625,1.571813173,9.485772112,0.137264528,0.145847221,0.242287880
1.815000000,-1.886926730,1.635907106,9.616490165,0.143055697,0.145702660,0.257129782
1.820000000,-1.852149359,1.729346640,9.589251393,0.146761326,0.135882250,0.246204576
1.825000000,-1.868360537,1.707707344,9.470964417,0.141053954,0.149203384,0.249173337
1.830000000,-1.897386906,1.615579653,9.492489078,0.147499004,0.143446250,0.259984154
1.835000000,-1.944442034,1.694941635,9.613017954,0.145594051,0.145053853,0.248687907
1.840000000,-1.913383116,1.776937737,9.584735522,0.139689863,0.145324499,0.251913439
1.845000000,-1.916446335,1.818573043,9.594595797,0.148949149,0.133597530,0.250163062
1.850000000,-1.920855013,1.679847881,9.505514074,0.147326116,0.148252497,0.254568500
1.855000000,-1.968500831,1.788216111,9.580832941,0.143626139,0.149571357,0.244966198
1.860000000,-1.870604960,1.774611052,9.573036553,0.145862878,0.146216556,0.254946441
1.865000000,-1.928276028,1.702738159,9.522224765,0.155407658,0.141368448,0.249587824
1.870000000,-1.875577957,1.779158755,9.610800063,0.148428733,0.138642127,0.248508882
1.875000000,-1.844478417,1.819034218,9.569264077,0.150869088,0.142828231,0.260108757
1.880000000,-1.947519949,1.755722030,9.434415480,0.146233205,0.141965534,0.255322134
1.885000000,-1.975434689,1.792461661,9.532848630,0.149988167,0.151019214,0.250528155
1.890000000,-1.953152593,1.844639365,9.520144564,0.150442481,0.138863140,0.258173239
1.895000000,-1.986467186,1.797519328,9.522119576,0.142468485,0.140451904,0.242788944
1.900000000,-1.977658494,1.781202131,9.444237687,0.154413049,0.146827785,0.251744557
1.905000000,-2.033067917,1.812703763,9.580964639,0.138959514,0.144261092,0.254194144
1.910000000,-1.988956677,1.868004876,9.479456524,0.148285563,0.147520988,0.250253757
1.915000000,-1.947209103,1.851805086,9.564884953,0.154545437,0.148177506,0.246892967
1.920000000,-2.058302987,1.803199006,9.579107575,0.148118141,0.142512003,0.254139170
1.925000000,-1.941839411,1.858925269,9.507551585,0.142349576,0.146288198,0.248600158
1.930000000,-1.932166333,1.877168455,9.475713029,0.144020702,0.149679853,0.250580238
1.935000000,-1.947336718,1.881333521,9.523633387,0.147923186,0.143287777,0.258444278
1.940000000,-1.925425523,1.808660161,9.539381848,0.150966895,0.133461832,0.253777243
1.945000000,-1.934040440,1.922582845,9.476437085,0.156868978,0.147936362,0.249677127
1.950000000,-1.974258541,1.851091531,9.528718002,0.153021344,0.143134279,0.250213722
1.955000000,-1.991992502,1.926758673,9.484563286,0.144689780,0.142487473,0.262582903
1.960000000,-1.996710297,1.971574346,9.501936481,0.151176621,0.145034981,0.252053357
1.965000000,-2.059235849,2.007235448,9.469588888,0.152530549,0.141329537,0.247639060
1.970000000,-2.175277900,1.979000250,9.452660838,0.147868795,0.139042745,0.253542719
1.975000000,-2.090464056,2.008755944,9.506657044,0.151672303,0.138559563,0.259780554
1.980000000,-2.037560677,1.919928362,9.463146852,0.145740828,0.142818622,0.256189958
1.985000000,-2.045086773,1.844109106,9.422167179,0.150731670,0.145648911,0.244413137
1.990000000,-2.103334458,1.992278956,9.517071656,0.149669996,0.139291386,0.257932847
1.995000000,-1.948663916,1.957526974,9.420899030,0.152217820,0.147529866,0.248559116
2.000000000,-2.111361085,2.011244814,9.469647163,0.157601251,0.138492120,0.256598065
2.005000000,-1.993691832,1.942814465,9.436582065,0.154863142,0.135216041,0.251087415
2.010000000,-2.019518779,2.121402750,9.454910711,0.156656680,0.141350495,0.249840700
2.015000000,-1.960518225,2.051734892,9.566927206,0.147047697,0.138235995,0.257450058
2.020000000,-2.093682603,2.055208164,9.510859873,0.160590235,0.146091193,0.260601650
2.025000000,-2.031007924,2.100348608,9.414458911,0.156633122,0.146429615,0.243871533
2.030000000,-2.106102324,1.973098673,9.438204936,0.163956188,0.143497604,0.246993034
2.035000000,-2.152097378,2.085630241,9.364242946,0.156475337,0.133138251,0.251377009
2.040000000,-2.167055218,2.167297084,9.465972998,0.158935165,0.141366890,0.254539559
2.045000000,-2.058112371,2.118696038,9.370894871,0.161149324,0.143356391,0.251796806
2.050000000,-2.159100114,2.041726212,9.338337972,0.157305349,0.144383430,0.251289759
2.055000000,-2.166226708,2.133645319,9.338121086,0.152349268,0.148770522,0.252425725
2.060000000,-2.199178787,2.188996586,9.475633498,0.156793443,0.151858237,0.251570955
2.065000000,-2.105168581,2.199968465,9.412780900,0.158758841,0.134057910,0.254392327
2.070000000,-2.130068508,2.113144651,9.394478059,0.155298630,0.137421189,0.254405035
2.075000000,-2.031404410,2.210382930,9.340422171,0.161733238,0.149353489,0.252212623
2.080000000,-2.155541480,2.123673475,9.375805634,0.154221690,0.148570696,0.257205827
2.085000000,-2.091668239,2.223763621,9.513319629,0.152362186,0.148733415,0.247268999
2.090000000,-2.190063656,2.148845969,9.304415100,0.161279157,0.139589494,0.256072200
2.095000000,-2.201379434,2.164705313,9.404027562,0.157140167,0.141906171,0.253275248
2.100000000,-2.157017170,2.258096562,9.380975181,0.167429446,0.144593663,0.245283308
2.105000000,-2.094576433,2.184292086,9.355412986,0.156944411,0.137010313,0.259488519
2.110000000,-2.140477423,2.224157159,9.407150345,0.162105984,0.150208775,0.248235141
2.115000000,-2.267910720,2.207680070,9.376526270,0.155934937,0.152941943,0.235209129
2.120000000,-2.184620110,2.160475957,9.386628852,0.154320965,0.130106871,0.245180552
2.125000000,-2.159675326,2.326963433,9.440943088,0.155928616,0.143514684,0.245477249
2.130000000,-2.181494877,2.306373632,9.416421685,0.164225522,0.147404162,0.248669620
2.135000000,-2.195382331,2.320239947,9.337339643,0.154576196,0.142116480,0.251723872
2.140000000,-2.161671440,2.275157054,9.323172413,0.170264154,0.143796303,0.247000068
2.145000000,-2.200494570,2.346430853,9.374797426,0.164156829,0.140027171,0.255669305
2.150000000,-2.217784454,2.225909694,9.367317523,0.156920605,0.138156684,0.254386803
2.155000000,-2.140779351,2.334674806,9.309009517,0.161003051,0.140907652,0.248744089
2.160000000,-2.241928764,2.336214710,9.396526804,0.154076659,0.144678052,0.252942379
2.165000000,-2.221755866,2.260695957,9.343340709,0.156228272,0.136531011,0.251336320
2.170000000,-2.323639086,2.261208519,9.340861711,0.167775325,0.138077249,0.249594227
2.175000000,-2.330852493,2.354676199,9.316919822,0.161889864,0.136377190,0.252789352
2.180000000,-2.184281769,2.413134348,9.388944954,0.163743164,0.142694562,0.252829671
2.185000000,-2.248375946,2.383291425,9.203409311,0.166764251,0.143700182,0.244380956
2.190000000,-2.119077481,2.384103489,9.302671143,0.167199789,0.145707064,0.250142645
2.195000000,-2.244221362,2.323425536,9.366385874,0.162464547,0.142046021,0.254313267
2.200000000,-2.246515589,2.447066159,9.483937233,0.151383938,0.139675688,0.248080352
2.205000000,-2.251201157,2.443699457,9.351463929,0.165807087,0.148250698,0.247686482
2.210000000,-2.260358451,2.309814644,9.292988313,0.163263460,0.137323845,0.250407949
2.215000000,-2.304167942,2.502382524,9.298783436,0.158628939,0.147836519,0.244035861
2.220000000,-2.252891494,2.437102616,9.376212194,0.174044901,0.142465267,0.250234679
2.225000000,-2.265800622,2.416871229,9.239176192,0.160754232,0.140756613,0.249219959
2.230000000,-2.361245222,2.495992640,9.317668879,0.166764185,0.136610396,0.244009991
2.235000000,-2.257143432,2.529684049,9.363137010,0.156983005,0.138656638,0.252873729
2.240000000,-2.183288462,2.559098594,9.308307608,0.172745319,0.144790903,0.248162589
2.245000000,-2.205017464,2.467689121,9.287074600,0.172255451,0.138510447,0.252570328
2.250000000,-2.338920054,2.607745103,9.318097977,0.164273418,0.145191267,0.244373613
2.255000000,-2.289199969,2.549142935,9.249239483,0.165486468,0.141966360,0.251892411
2.260000000,-2.373267661,2.541405073,9.270813432,0.165564125,0.140793636,0.250843069
2.265000000,-2.293933470,2.494305121,9.242456167,0.164841055,0.148195062,0.240924433
2.270000000,-2.306625042,2.502351442,9.357654927,0.166633025,0.148562952,0.236933705
2.275000000,-2.253974175,2.548120923,9.249210268,0.165174641,0.135035850,0.252552638
2.280000000,-2.273302567,2.603296277,9.188994526,0.168428822,0.141599031,0.248965743
2.285000000,-2.228735914,2.605548104,9.292251333,0.172938341,0.136671674,0.244868251
2.290000000,-2.173847334,2.591369940,9.309888962,0.171827048,0.149632667,0.247024502
2.295000000,-2.216619657,2.570880117,9.276161458,0.161189756,0.145756615,0.239303825
2.300000000,-2.375597222,2.626790427,9.301810467,0.165581220,0.140194873,0.245356650
2.305000000,-2.274517939,2.612192950,9.248050799,0.164665257,0.140112358,0.239337059
2.310000000,-2.344943109,2.744219499,9.309440164,0.171349111,0.135579270,0.249463492
2.315000000,-2.301958128,2.632143844,9.179591642,0.174485233,0.140455735,0.246754787
2.320000000,-2.332842763,2.609526777,9.113010776,0.172506756,0.150199687,0.243637044
2.325000000,-2.398427736,2.609667975,9.266662021,0.165211006,0.140529091,0.244120974
2.330000000,-2.393802291,2.606581713,9.195594613,0.158528109,0.152136029,0.251335054
2.335000000,-2.343898305,2.604575529,9.255613075,0.176315116,0.141891239,0.247595852
2.340000000,-2.334673433,2.651060562,9.238930065,0.174166025,0.138163184,0.249667284
2.345000000,-2.309187889,2.711810010,9.253519820,0.168914002,0.134226712,0.247236080
2.350000000,-2.353558605,2.820743820,9.249788653,0.170835519,0.138639602,0.247544044
2.355000000,-2.257858432,2.762610333,9.123876527,0.164706822,0.139172497,0.246729056
2.360000000,-2.309145603,2.673737737,9.255595390,0.170552371,0.135999707,0.250002454
2.365000000,-2.403677028,2.812779760,9.242613212,0.175659022,0.142312198,0.247446947
2.370000000,-2.292707359,2.751578041,9.267332650,0.171133942,0.144801271,0.249365126
2.375000000,-2.241841793,2.732201505,9.213149650,0.173202366,0.145479947,0.243753947
2.380000000,-2.364273675,2.847150368,9.195888524,0.161590468,0.136666075,0.245937070
2.385000000,-2.326884102,2.780050093,9.175124150,0.166518717,0.142561879,0.242418579
2.390000000,-2.382974813,2.837339078,9.147070338,0.175723547,0.149293662,0.247961693
2.395000000,-2.461123688,2.915135155,9.202587473,0.180094025,0.140185645,0.253347290
2.400000000,-2.366206092,2.849496352,9.324413432,0.160412046,0.135562733,0.255606426
2.405000000,-2.412227470,2.903031517,9.139113315,0.173350388,0.139124308,0.254950883
2.410000000,-2.411036221,2.782145654,9.157655011,0.168479444,0.140699763,0.239843350
2.415000000,-2.364662865,2.853591899,9.212964884,0.172373335,0.150325314,0.246719877
2.420000000,-2.437861200,2.840317640,9.154349014,0.189545266,0.142360420,0.245410459
2.425000000,-2.433399726,2.922173927,9.170819735,0.178418267,0.148723077,0.244424133
2.430000000,-2.359960847,2.939897554,9.157428813,0.180360666,0.141265825,0.247227508
2.435000000,-2.422131182,2.936470253,9.146346346,0.176089398,0.138768934,0.244943440
2.440000000,-2.473614028,2.873620284,9.154325239,0.173057574,0.134386449,0.243811664
2.445000000,-2.360831357,2.947273992,9.133947296,0.186458488,0.139620618,0.253524616
2.450000000,-2.433944561,2.901546508,8.985666729,0.185782681,0.137892179,0.238309926
2.455000000,-2.474509356,3.038842089,9.111144186,0.178869321,0.135384838,0.242210509
2.460000000,-2.381956778,2.881178086,9.111322793,0.175838824,0.130197515,0.241107821
2.465000000,-2.489485577,2.924151756,9.090039595,0.173796313,0.141234955,0.249430314
2.470000000,-2.434890578,2.949015407,9.162646583,0.174402107,0.136580349,0.256358374
2.475000000,-2.411038751,3.002039264,9.067731349,0.174054637,0.143515519,0.243404023
2.480000000,-2.492846580,2.947374078,9.159080142,0.179516225,0.141098993,0.243766363
2.485000000,-2.410922643,3.035135557,9.187586908,0.179784611,0.140003612,0.248222807
2.490000000,-2.467898444,2.952600031,9.095038910,0.179341268,0.142882818,0.242684648
2.495000000,-2.383552845,3.095841567,9.070300302,0.180271124,0.139805527,0.254965388
2.500000000,-2.471957237,3.006801627,9.032850868,0.176682791,0.140629542,0.250304892
2.505000000,-2.417158259,3.019749095,9.065762549,0.178488660,0.141941512,0.234666717
2.510000000,-2.433349585,2.963650379,9.038197171,0.180484262,0.139848863,0.250679572
2.515000000,-2.534027647,3.162547707,9.015433281,0.183794096,0.138249063,0.243483404
2.520000000,-2.516000073,3.047275730,9.099646110,0.181319366,0.141016093,0.243247966
2.525000000,-2.502221045,3.050347501,9.067367892,0.188288555,0.145962509,0.246876576
2.530000000,-2.548298785,3.202479082,9.147964688,0.183459724,0.141228423,0.241314294
2.535000000,-2.504910165,3.176783005,9.026499539,0.173083776,0.145389362,0.248165960
2.540000000,-2.490711619,3.086136482,9.118239880,0.191420178,0.144132359,0.250540273
2.545000000,-2.460794763,3.183974045,9.117545193,0.183245805,0.134687657,0.237786713
2.550000000,-2.454851058,3.127095916,9.089177816,0.168847843,0.140737492,0.244239702
2.555000000,-2.496858828,3.138755446,9.086179293,0.181883500,0.141052588,0.243874534
2.560000000,-2.512465542,3.167934815,8.950906361,0.179964357,0.139930702,0.243597816
2.565000000,-2.529648535,3.283301851,9.023868376,0.182301212,0.138636467,0.240314900
2.570000000,-2.506182075,3.194093821,9.062154205,0.179673798,0.132483139,0.245847127
2.575000000,-2.562413663,3.102040386,9.080896616,0.181189391,0.135023501,0.242537910
2.580000000,-2.532009781,3.226874178,9.077805311,0.176417969,0.138538287,0.245613043
2.585000000,-2.511330210,3.264909704,8.985978282,0.186776913,0.139638986,0.246534026
2.590000000,-2.588864825,3.223583396,8.965838903,0.177508878,0.140146269,0.244395725
2.595000000,-2.536247516,3.177626618,9.018065207,0.189990769,0.136934035,0.246640536
2.600000000,-2.554227561,3.203661576,8.881219860,0.175715929,0.135267518,0.239725536
2.605000000,-2.403141132,3.279643562,9.021059236,0.189610896,0.135871272,0.247109514
2.610000000,-2.583030682,3.334981404,8.964521434,0.176509200,0.135266715,0.239091977
2.615000000,-2.485078574,3.273428976,8.995279134,0.182233481,0.133005833,0.250547520
2.620000000,-2.487131015,3.305991968,8.993151735,0.179530414,0.132412655,0.251766830
2.625000000,-2.540874169,3.353671135,8.973513317,0.189290123,0.121400292,0.248439884
2.630000000,-2.517075135,3.363143398,8.981004755,0.180350775,0.138097623,0.248604580
2.635000000,-2.608184288,3.304041982,8.879986952,0.187785415,0.130612815,0.233321604
2.640000000,-2.554745896,3.216974682,8.899012759,0.176775153,0.136802550,0.244081822
2.645000000,-2.503926090,3.368036909,8.893647136,0.182200272,0.136550057,0.237926919
2.650000000,-2.532583949,3.344656588,8.888713606,0.179411637,0.139561846,0.236026082
2.655000000,-2.561168518,3.312465772,8.907035280,0.191832285,0.139474513,0.247948880
2.660000000,-2.609229169,3.356548700,8.938452767,0.183002037,0.136009832,0.236336838
2.665000000,-2.480850794,3.299907396,8.913525329,0.187289433,0.137638339,0.246470014
2.670000000,-2.526052577,3.479494345,8.911150058,0.177089115,0.131008613,0.241818567
2.675000000,-2.439091689,3.410351242,8.984826400,0.192681340,0.137069595,0.245445314
2.680000000,-2.645957722,3.490087063,8.836107150,0.183690015,0.134839688,0.240518728
2.685000000,-2.492121517,3.457999590,8.909867004,0.182847056,0.139803748,0.240384552
2.690000000,-2.609846270,3.463527479,8.843956939,0.182125994,0.133224355,0.241187282
2.695000000,-2.591231856,3.491357819,8.857229401,0.181872810,0.137400668,0.246452021
2.700000000,-2.494842570,3.509112209,8.846050397,0.188823045,0.128316705,0.246034113
2.705000000,-2.558239467,3.431805624,8.819699102,0.192013758,0.129542222,0.242554030
2.710000000,-2.582843251,3.475203452,8.934065110,0.186025328,0.137658792,0.239943166
2.715000000,-2.506213656,3.563542888,8.826733130,0.189265287,0.139770950,0.241604499
2.720000000,-2.542401270,3.467470142,8.783155073,0.192375765,0.132866171,0.242904557
2.725000000,-2.586360008,3.561967445,8.809116046,0.191793387,0.139302318,0.237539642
2.730000000,-2.584063152,3.603415771,8.873773121,0.183753612,0.136329529,0.248518250
2.735000000,-2.544629768,3.467266146,8.759586481,0.185412007,0.131450021,0.235904728
2.740000000,-2.626430043,3.654209910,8.909634973,0.188112548,0.143087698,0.244471278
2.745000000,-2.634068704,3.535720694,8.843315512,0.190616319,0.138720880,0.236644642
2.750000000,-2.597202199,3.554422923,8.831543967,0.174122010,0.137554411,0.236618442
2.755000000,-2.582347017,3.657487661,8.837139510,0.181261877,0.136564382,0.240174545
2.760000000,-2.630636220,3.584757377,8.909017837,0.177468478,0.143346101,0.248743813
2.765000000,-2.617654468,3.678663559,8.854051439,0.186042232,0.143252317,0.238434070
2.770000000,-2.538481528,3.550949688,8.768814806,0.194167283,0.140884630,0.248355994
2.775000000,-2.480876587,3.638697301,8.852837515,0.200564035,0.141189227,0.252371613
2.780000000,-2.535084202,3.679978385,8.793735453,0.188705289,0.135545791,0.240007413
2.785000000,-2.605542278,3.535797925,8.721368182,0.186059950,0.128244183,0.240087761
2.790000000,-2.564825407,3.681888425,8.790208291,0.187703362,0.133672640,0.236002799
2.795000000,-2.653377678,3.738236699,8.862983060,0.189348905,0.134557958,0.238159520
2.800000000,-2.514246555,3.736203361,8.843449019,0.195719431,0.128862254,0.236785260
2.805000000,-2.577922790,3.784325125,8.785471192,0.191574509,0.147767217,0.240699238
2.810000000,-2.640879379,3.670351672,8.737584846,0.192221581,0.135136121,0.242546750
2.815000000,-2.645479435,3.785740636,8.685030902,0.206052080,0.133762457,0.237234178
2.820000000,-2.649716896,3.769699478,8.817575885,0.192004256,0.145435987,0.246177782
2.825000000,-2.606339304,3.745536666,8.703697205,0.198082869,0.139263567,0.243059690
2.830000000,-2.576388426,3.678481117,8.773146583,0.185693600,0.139657973,0.246919156
2.835000000,-2.545813009,3.669364202,8.704315162,0.188975307,0.132563076,0.238949443
2.840000000,-2.575597930,3.782100343,8.795691840,0.184072970,0.124488011,0.242242693
2.845000000,-2.610318084,3.815412689,8.807113860,0.192298792,0.137073399,0.239986790
2.850000000,-2.709979555,3.896474545,8.770960109,0.192076802,0.129827835,0.250310781
2.855000000,-2.616509974,3.768943291,8.765302195,0.191311496,0.135670853,0.246304622
2.860000000,-2.694437582,3.817413496,8.688117885,0.190667709,0.135932265,0.237017535
2.865000000,-2.581976614,3.822633781,8.705390184,0.195087284,0.133531569,0.237747060
2.870000000,-2.615600439,3.873104109,8.671601748,0.184913255,0.137880541,0.239042785
2.875000000,-2.661802107,3.853626233,8.652429370,0.195731304,0.126879015,0.229208089
2.880000000,-2.633309008,3.924114626,8.661497584,0.192487227,0.145063484,0.237080535
2.885000000,-2.636883689,3.946567408,8.692608352,0.186881193,0.130697356,0.230993111
2.890000000,-2.672789384,3.921856676,8.680044657,0.192690324,0.128207909,0.240762427
2.895000000,-2.521601541,3.972298548,8.709508512,0.185258769,0.124504229,0.238576138
2.900000000,-2.638547091,3.902150323,8.661699504,0.197198719,0.132343475,0.234475995
2.905000000,-2.724097649,3.964716437,8.690163345,0.202732369,0.129586212,0.238111008
2.910000000,-2.525993528,3.985561174,8.698329699,0.186568349,0.133804096,0.234441413
2.915000000,-2.633374074,3.909856002,8.717854976,0.197586315,0.143112907,0.244983652
2.920000000,-2.645279855,3.889730213,8.653574863,0.200243061,0.132293839,0.249939235
2.925000000,-2.623212457,3.922893390,8.617991063,0.189209761,0.137680491,0.246287396
2.930000000,-2.637526551,3.915932626,8.673573198,0.197198920,0.125486963,0.247823911
2.935000000,-2.664054758,4.053248927,8.620448993,0.196762550,0.138828327,0.239429676
2.940000000,-2.770035717,4.017303018,8.657495496,0.196764218,0.130516425,0.238439603
2.945000000,-2.610426931,4.016254600,8.658509273,0.202926607,0.139868675,0.238993315
2.950000000,-2.586827590,4.069458610,8.555853995,0.189889353,0.128005972,0.232808827
2.955000000,-2.672971832,4.059857512,8.659339789,0.194372459,0.142210359,0.228126484
2.960000000,-2.649352139,4.111813361,8.560183134,0.198339239,0.139237306,0.238394411
2.965000000,-2.603634144,4.112742333,8.643831491,0.188530602,0.128105676,0.240389691
2.970000000,-2.643015532,4.030898141,8.627510274,0.185025439,0.129307128,0.228552955
2.975000000,-2.705102424,4.053422983,8.590038502,0.192032167,0.136727328,0.237682015
2.980000000,-2.629486513,4.076020545,8.617431690,0.197198174,0.133045714,0.237835880
2.985000000,-2.696313736,4.133928244,8.587239913,0.197336734,0.141005178,0.230566008
2.990000000,-2.810672014,4.172477463,8.572387738,0.185463417,0.139164454,0.242359383
2.995000000,-2.640541740,4.134446259,8.486775276,0.191450535,0.135832693,0.232970839
3.000000000,-2.697607093,4.170287302,8.564609050,0.207798848,0.132630873,0.236690939
3.005000000,-2.806977088,4.085287862,8.645163691,0.200735297,0.131088099,0.233476171
3.010000000,-2.803750881,4.226814856,8.626848435,0.199754344,0.129954424,0.234485961
3.015000000,-2.648828874,4.200924348,8.482673366,0.191934973,0.134421672,0.231473591
3.020000000,-2.702821908,4.195157979,8.635077432,0.192039490,0.132265545,0.239563592
3.025000000,-2.640172676,4.251980197,8.567192298,0.198258957,0.142644618,0.233354012
3.030000000,-2.740101320,4.190285869,8.493102921,0.193332967,0.137567781,0.233557649
3.035000000,-2.598821975,4.255518260,8.494484825,0.200910178,0.122633517,0.237336565
3.040000000,-2.661367626,4.239587133,8.480574995,0.189798657,0.139663197,0.230885864
3.045000000,-2.626890846,4.218587581,8.442568749,0.198527870,0.130429586,0.231540650
3.050000000,-2.765587700,4.207675585,8.460557189,0.195201917,0.126544011,0.234080466
3.055000000,-2.660477480,4.176602083,8.418989709,0.197093392,0.130454560,0.235831933
3.060000000,-2.681137441,4.349893839,8.443989236,0.199302236,0.132506007,0.249535485
3.065000000,-2.601117398,4.376890725,8.484811276,0.191797064,0.138090997,0.235858555
3.070000000,-2.765687250,4.313211316,8.422713712,0.204932328,0.133014528,0.231007814
3.075000000,-2.684566323,4.374322033,8.438366733,0.195424325,0.139685238,0.230057471
3.080000000,-2.771435749,4.316537599,8.506833300,0.195669227,0.124200244,0.240291083
3.085000000,-2.626704289,4.355026783,8.469598458,0.200611227,0.135470691,0.244787667
3.090000000,-2.710972137,4.311815180,8.502754451,0.202347080,0.138605668,0.240900995
3.095000000,-2.695804596,4.345601673,8.445879987,0.210202779,0.133014613,0.238414680
3.100000000,-2.671167989,4.301342678,8.459034955,0.193671620,0.121645802,0.237966314
3.105000000,-2.753762172,4.341496604,8.387622634,0.205990601,0.127888581,0.234925497
3.110000000,-2.729929834,4.485468722,8.456423575,0.194431415,0.137478113,0.239196053
3.115000000,-2.634693141,4.395465463,8.356261249,0.206110880,0.128643146,0.241902059
3.120000000,-2.594574631,4.417204714,8.384813363,0.199696690,0.134273081,0.233025565
3.125000000,-2.710482738,4.376042860,8.350367625,0.196890177,0.135479939,0.237074802
3.130000000,-2.738000500,4.451798110,8.284262192,0.197562102,0.137186837,0.232298755
3.135000000,-2.688783375,4.492681169,8.424104055,0.197861373,0.136082876,0.224939749
3.140000000,-2.674610976,4.496406984,8.363183740,0.194206399,0.127713966,0.233098902
3.145000000,-2.775312559,4.463335647,8.427271158,0.203061673,0.121069407,0.224533622
3.150000000,-2.770580489,4.455621923,8.388387522,0.202823484,0.136390977,0.237248092
3.155000000,-2.726802738,4.529998315,8.342395441,0.194841970,0.130565804,0.236527938
3.160000000,-2.770367956,4.476452832,8.302582888,0.198751678,0.131582615,0.230874093
3.165000000,-2.704175040,4.521226797,8.454273060,0.208679188,0.122677625,0.231969942
3.170000000,-2.723596151,4.606188893,8.344439452,0.197048322,0.129023647,0.232147771
3.175000000,-2.640168458,4.469316467,8.286627563,0.198445878,0.124902671,0.240075032
3.180000000,-2.763976185,4.547651373,8.361921093,0.203737441,0.134171749,0.235020509
3.185000000,-2.724723495,4.623602357,8.372760533,0.196955958,0.133644131,0.235954016
3.190000000,-2.762869686,4.520208088,8.275600714,0.204405146,0.126229719,0.232680962
3.195000000,-2.739031644,4.653821551,8.261158964,0.207572616,0.131030591,0.232313629
3.200000000,-2.668758003,4.568740146,8.357169835,0.198266620,0.135215604,0.234718488
3.205000000,-2.699918369,4.610498879,8.278000214,0.204426008,0.134895571,0.238927371
3.210000000,-2.638207385,4.606480332,8.256713155,0.209370439,0.134622297,0.237340405
3.215000000,-2.721966203,4.670941331,8.256625147,0.205499575,0.128090678,0.240865066
3.220000000,-2.707760056,4.674946537,8.275298397,0.209372449,0.141777101,0.230835379
3.225000000,-2.729358687,4.650676750,8.343734110,0.202301648,0.135799121,0.231260308
3.230000000,-2.622073793,4.760687049,8.261204975,0.207199297,0.131610560,0.231881691
3.235000000,-2.673618707,4.607161207,8.224840524,0.200961921,0.134142094,0.242044365
3.240000000,-2.624532614,4.650945525,8.229914241,0.194443821,0.118019808,0.229414055
3.245000000,-2.657788395,4.682002802,8.216801528,0.210982515,0.135010138,0.233518768
3.250000000,-2.670880825,4.743989147,8.253672051,0.195553917,0.129516877,0.219734208
3.255000000,-2.680815450,4.692472069,8.265234555,0.206296530,0.129439517,0.227375429
3.260000000,-2.765098206,4.693913829,8.161611201,0.202982787,0.133546861,0.239116540
3.265000000,-2.638403840,4.716632515,8.234852111,0.197343485,0.131306725,0.235317263
3.270000000,-2.666955631,4.744679590,8.159343689,0.199336575,0.126277473,0.231476996
3.275000000,-2.675651880,4.840313667,8.190477580,0.201962191,0.128917989,0.227249147
3.280000000,-2.715403634,4.751195719,8.236704270,0.205790557,0.128241536,0.236997440
3.285000000,-2.801842251,4.803843451,8.164129676,0.199356120,0.125239154,0.238561714
3.290000000,-2.752792289,4.857725482,8.227284231,0.198433711,0.132518193,0.228885802
3.295000000,-2.628185208,4.820425834,8.204216762,0.209970724,0.123688822,0.225983252
3.300000000,-2.750388198,4.882952722,8.156113929,0.203304807,0.126633758,0.241839121
3.305000000,-2.674468035,4.795222771,8.268037683,0.209097060,0.130558852,0.232190213
3.310000000,-2.737978882,4.881976148,8.195671757,0.207652373,0.135590963,0.231196200
3.315000000,-2.689221224,4.838613452,8.067941500,0.197868777,0.128549415,0.234496509
3.320000000,-2.643292866,4.872445280,8.163306163,0.206719747,0.132365201,0.237373199
3.325000000,-2.704998669,4.872280926,8.051991626,0.201689958,0.135035069,0.232067895
3.330000000,-2.667599620,4.860160053,8.211286475,0.207607205,0.135546787,0.235303170
3.335000000,-2.748237062,4.913269492,8.156175535,0.201818725,0.121788904,0.243050331
3.340000000,-2.710092588,4.974694879,8.093142844,0.205901097,0.131708924,0.235022109
3.345000000,-2.666815979,4.950868613,8.047858784,0.190191330,0.128376667,0.231804751
3.350000000,-2.692587116,4.946691267,8.094161843,0.217912585,0.132054949,0.224300832
3.355000000,-2.667497024,4.997388149,8.091674373,0.206825773,0.134225073,0.224135455
3.360000000,-2.661837264,5.029397145,8.038306896,0.204503034,0.126013640,0.230182273
3.365000000,-2.780558523,4.975090342,8.080740476,0.203071832,0.120060173,0.228057586
3.370000000,-2.624032847,4.940689572,8.077597037,0.207677809,0.126877819,0.229765086
3.375000000,-2.721969209,4.998821027,7.962105089,0.203737035,0.125894067,0.225836643
3.380000000,-2.687317597,5.058522787,8.038182156,0.200041236,0.117184192,0.226536521
3.385000000,-2.841526142,4.886440621,7.942924442,0.212258929,0.130733370,0.229718002
3.390000000,-2.743368236,5.092220560,8.025252763,0.202959819,0.121881949,0.222223158
3.395000000,-2.667216769,5.177148587,8.107296120,0.202946804,0.132682667,0.226605809
3.400000000,-2.770127465,5.013334753,7.981189819,0.209178263,0.130074633,0.235020264
3.405000000,-2.729363033,5.056614623,8.000415497,0.207041358,0.124228007,0.227569602
3.410000000,-2.713022574,5.014587603,7.916889953,0.196207478,0.132432957,0.235907958
3.415000000,-2.675331005,5.064124197,7.947113431,0.209413743,0.124028028,0.231609319
3.420000000,-2.747265029,5.200874570,8.063087998,0.208695849,0.126195683,0.234765291
3.425000000,-2.739783099,5.071646990,8.043224087,0.201942042,0.134954203,0.228908523
3.430000000,-2.710719542,5.138714118,8.011224483,0.211808143,0.131719428,0.229647652
3.435000000,-2.801189856,5.155491546,7.949218821,0.208706077,0.116109297,0.234601019
3.440000000,-2.667196286,5.133272162,7.927578213,0.213906957,0.124304636,0.232397901
3.445000000,-2.631462325,5.130011584,7.942160523,0.209223000,0.128046507,0.225553156
3.450000000,-2.731641927,5.211297253,7.904245017,0.197126929,0.118118951,0.228516284
3.455000000,-2.746973522,5.203687057,7.876981700,0.199078513,0.121023756,0.230270057
3.460000000,-2.672376088,5.171236385,7.839866785,0.208574639,0.132498887,0.228252135
3.465000000,-2.705948343,5.248800968,7.917951466,0.208545941,0.127703881,0.232821967
3.470000000,-2.655135986,5.173380491,7.939136771,0.217556907,0.127944908,0.231845391
3.475000000,-2.825614363,5.205320206,7.927735121,0.207996254,0.123549447,0.230917548
3.480000000,-2.683838381,5.260538584,7.942422206,0.193735853,0.126129887,0.234603606
3.485000000,-2.736264296,5.118633626,7.825554399,0.203644637,0.123549522,0.229631116
3.490000000,-2.687486981,5.176055465,7.880176576,0.208581518,0.127845711,0.220710294
3.495000000,-2.765430091,5.226227938,7.815670769,0.217361656,0.128355870,0.228871794
3.500000000,-2.617017763,5.265669497,7.811465627,0.208703411,0.122894559,0.229924729
3.505000000,-2.715406515,5.205389439,7.825658614,0.208380569,0.129196275,0.219747817
3.510000000,-2.609072534,5.279195477,7.929106105,0.206289282,0.127954722,0.233547405
3.515000000,-2.717383642,5.253270303,7.856253635,0.204641001,0.119587428,0.222183483
3.520000000,-2.646306852,5.290883095,7.901103352,0.206309390,0.120912046,0.232418314
3.525000000,-2.639421764,5.234272733,7.752473562,0.197925251,0.113947354,0.232080441
3.530000000,-2.747620334,5.334514910,7.794024876,0.212527652,0.123099858,0.225354314
3.535000000,-2.742446837,5.343881862,7.931185420,0.208109091,0.120975891,0.233928872
3.540000000,-2.673094324,5.438536846,7.784337676,0.203421362,0.123464897,0.227861562
3.545000000,-2.716110749,5.364595887,7.800394415,0.214220119,0.128927868,0.231095614
3.550000000,-2.716815701,5.378021873,7.768672437,0.212719425,0.124823305,0.228182480
3.555000000,-2.719792797,5.465830079,7.739825696,0.210882969,0.110840637,0.229244335
3.560000000,-2.616226388,5.379944738,7.806346741,0.203645146,0.109545254,0.224006855
3.565000000,-2.714133076,5.428999923,7.834985845,0.208410061,0.118516928,0.228283512
3.570000000,-2.656748509,5.520133677,7.813908889,0.210366539,0.119131260,0.225204150
3.575000000,-2.717932634,5.415361678,7.855240674,0.213950040,0.127942195,0.226076606
3.580000000,-2.772246906,5.463599560,7.762980717,0.205444397,0.119491409,0.236122891
3.585000000,-2.739369038,5.461937562,7.710485789,0.204834198,0.126626715,0.223621096
3.590000000,-2.620343503,5.479911646,7.753087837,0.214058667,0.115320689,0.221371801
3.595000000,-2.752797562,5.474645537,7.728737674,0.203002340,0.125848776,0.214639080
3.600000000,-2.657260474,5.562988650,7.664905395,0.212748364,0.124242945,0.227162826
3.605000000,-2.748910612,5.520029760,7.785128888,0.213351686,0.122454165,0.225681894
3.610000000,-2.686325200,5.517401710,7.732812302,0.214710557,0.120552154,0.231430091
3.615000000,-2.631925264,5.480162296,7.706548481,0.206422380,0.122244088,0.228449250
3.620000000,-2.743255639,5.621111254,7.767007345,0.211253799,0.133956594,0.222320845
3.625000000,-2.695445748,5.560378665,7.678447104,0.208681897,0.126743458,0.234237630
3.630000000,-2.602579027,5.604576885,7.704503926,0.209349807,0.119716546,0.236403856
3.635000000,-2.712980451,5.686272404,7.652750537,0.214473184,0.116808701,0.224729278
3.640000000,-2.638299449,5.537494243,7.662270441,0.206232110,0.122252413,0.229026794
3.645000000,-2.740436120,5.579450082,7.678786414,0.198760932,0.123910485,0.231894459
3.650000000,-2.614101598,5.572682229,7.704266852,0.201119517,0.125170056,0.229408149
3.655000000,-2.582794995,5.717924804,7.699373009,0.205001313,0.120160894,0.218481078
3.660000000,-2.635582851,5.652472733,7.546583496,0.213041277,0.124514532,0.230956637
3.665000000,-2.696516278,5.547689815,7.565841872,0.208494979,0.109246953,0.217629067
3.670000000,-2.561053749,5.672880808,7.588633231,0.209585706,0.114869648,0.224405195
3.675000000,-2.649669411,5.637467920,7.585214005,0.209341844,0.117793878,0.228798320
3.680000000,-2.669771366,5.702386026,7.553492361,0.207649742,0.132945911,0.220054529
3.685000000,-2.627230381,5.753465560,7.642529783,0.208538704,0.122568713,0.228367106
3.690000000,-2.642247320,5.625911541,7.587371062,0.205648152,0.122556667,0.218332240
3.695000000,-2.674520766,5.699717390,7.544128724,0.214829163,0.121482668,0.221343586
3.700000000,-2.711700236,5.728285414,7.551192342,0.206559314,0.119441112,0.230206569
3.705000000,-2.829708625,5.743184344,7.523919332,0.208062315,0.129992753,0.227001404
3.710000000,-2.693389425,5.662686618,7.575139427,0.204071319,0.126253706,0.231898830
3.715000000,-2.773534811,5.758073095,7.470044257,0.203062372,0.119270556,0.217340991
3.720000000,-2.697403362,5.705994922,7.587510502,0.201507808,0.124812531,0.220085878
3.725000000,-2.692289747,5.776066945,7.571113061,0.214341615,0.121675795,0.221909082
3.730000000,-2.678451204,5.745385665,7.584164488,0.211982399,0.111252534,0.225649297
3.735000000,-2.687467496,5.739196887,7.572559707,0.218764035,0.119959574,0.220792991
3.740000000,-2.695683524,5.724609664,7.459195410,0.208863372,0.124540506,0.221074814
3.745000000,-2.637685945,5.804647556,7.484789779,0.216075374,0.123756620,0.212275422
3.750000000,-2.617063706,5.783350771,7.496815329,0.211235673,0.117786674,0.220251699
3.755000000,-2.682359514,5.812691266,7.545416087,0.211514229,0.125823641,0.226604486
3.760000000,-2.584453990,5.831853530,7.504483917,0.202865981,0.117891873,0.220775538
3.765000000,-2.675183170,5.893238571,7.437608556,0.203039192,0.121921278,0.217260338
3.770000000,-2.715647806,5.801534802,7.439265423,0.212339232,0.122048877,0.235151413
3.775000000,-2.642045504,5.873415429,7.502705031,0.211401387,0.113967336,0.222615692
3.780000000,-2.561883391,5.856551417,7.466514330,0.209638206,0.128106750,0.229112875
3.785000000,-2.652185667,5.903781150,7.423960494,0.218499866,0.123427409,0.214633821
3.790000000,-2.507017008,5.900661510,7.402092254,0.207693540,0.117050427,0.229932436
3.795000000,-2.611315100,5.870256952,7.591921671,0.213965340,0.122419662,0.228386654
3.800000000,-2.683231949,5.936746884,7.397453737,0.202525733,0.116298196,0.225809202
3.805000000,-2.677808662,5.999368281,7.451034696,0.211119557,0.121448417,0.224284280
3.810000000,-2.656266670,5.988268399,7.337553009,0.207704261,0.117559145,0.219357130
3.815000000,-2.711058034,6.057270695,7.332338890,0.214615145,0.129114259,0.225868790
3.820000000,-2.638455168,5.990152590,7.387660219,0.206412544,0.121853389,0.221879923
3.825000000,-2.695277883,6.003869726,7.299324620,0.208803840,0.116203063,0.226988934
3.830000000,-2.537439263,5.983696824,7.289060146,0.208075730,0.122856744,0.220373326
3.835000000,-2.537729057,5.994827613,7.417206593,0.204626506,0.114370850,0.213823904
3.840000000,-2.691564768,6.100331301,7.304178850,0.207845342,0.114497467,0.222083379
3.845000000,-2.568999378,5.992110192,7.302595557,0.207982194,0.104512575,0.223793886
3.850000000,-2.590216944,6.072306446,7.287023057,0.212948213,0.118775947,0.231588358
3.855000000,-2.636684110,6.132771811,7.304553555,0.202178202,0.120948087,0.224253598
3.860000000,-2.604214520,6.090439421,7.323083063,0.204068691,0.114989031,0.218957032
3.865000000,-2.598902948,6.035088364,7.312872883,0.203818053,0.123098110,0.227303230
3.870000000,-2.605795168,6.106781180,7.270934618,0.212332595,0.119577011,0.218985827
3.875000000,-2.580496276,6.112382767,7.281102019,0.213928504,0.119402717,0.223748978
3.880000000,-2.573460682,6.086336403,7.310545754,0.208771479,0.115751028,0.218718663
3.885000000,-2.580427548,6.091195135,7.248446975,0.211125141,0.120581077,0.219687132
3.890000000,-2.617403943,6.079733041,7.273593302,0.205596902,0.118725423,0.225386114
3.895000000,-2.652218268,6.147046914,7.337919736,0.203197026,0.108878338,0.216691491
3.900000000,-2.582071132,6.060672902,7.288185438,0.207986736,0.113698316,0.220902747
3.905000000,-2.719077392,6.093959096,7.177083529,0.198358438,0.114052418,0.218150840
3.910000000,-2.567982475,6.172492857,7.202553983,0.210152723,0.111387652,0.225731160
3.915000000,-2.583033707,6.133762198,7.288466089,0.208306778,0.114993934,0.219135746
3.920000000,-2.585685584,6.265910370,7.255613927,0.208502940,0.113215177,0.222758800
3.925000000,-2.621637186,6.231949008,7.194257283,0.209956080,0.118560004,0.223383429
3.930000000,-2.662951208,6.235227398,7.174375949,0.212372811,0.116545862,0.214446226
3.935000000,-2.599110562,6.201076703,7.221892922,0.210285523,0.106217771,0.223069786
3.940000000,-2.514191465,6.140315426,7.193575396,0.210257265,0.105975235,0.228265276
3.945000000,-2.668906107,6.224996120,7.262990451,0.212539683,0.113806069,0.221364796
3.950000000,-2.536599927,6.282751405,7.226154009,0.203033731,0.114736126,0.222538499
3.955000000,-2.534936031,6.218141663,7.246663215,0.204794029,0.119835462,0.217005389
3.960000000,-2.582879130,6.199058374,7.101538202,0.210265489,0.109226878,0.212298908
3.965000000,-2.579154515,6.285404870,7.179272584,0.209606074,0.121303500,0.222403453
3.970000000,-2.520465875,6.314641341,7.170099752,0.211070080,0.120030321,0.218911139
3.975000000,-2.583170413,6.220850254,7.110182545,0.210393091,0.115593486,0.219483756
3.980000000,-2.548271520,6.269188682,7.071657323,0.203254412,0.123834668,0.224538849
3.985000000,-2.626869695,6.371968507,7.112536305,0.208387385,0.105218059,0.226782064
3.990000000,-2.699417595,6.311283154,7.069333605,0.218047369,0.118311142,0.218857536
3.995000000,-2.526566606,6.342879345,7.096612884,0.218727148,0.113172669,0.226332494
4.000000000,-2.617640362,6.358584999,7.106346243,0.213826703,0.109518353,0.220786631
4.005000000,-2.565474901,6.392162254,7.072450360,0.204496317,0.110634566,0.215795388
4.010000000,-2.664547578,6.409113712,7.086245836,0.213781402,0.101404901,0.214830164
4.015000000,-2.468950605,6.412046426,7.088033713,0.206558015,0.111447576,0.207263658
4.020000000,-2.505360689,6.402720677,6.955666263,0.199197670,0.110610892,0.223532324
4.025000000,-2.529020048,6.317636682,6.950952770,0.198519170,0.112752798,0.222759549
4.030000000,-2.485840250,6.491356581,7.042388569,0.204405538,0.112606897,0.217871924
4.035000000,-2.578045899,6.409505295,6.990080425,0.206304414,0.100111488,0.222513566
4.040000000,-2.521932539,6.420607036,7.025397490,0.212460932,0.111363307,0.217451459
4.045000000,-2.548781742,6.393140046,6.986008574,0.207013093,0.109493254,0.221193467
4.050000000,-2.520625809,6.388699209,7.036958295,0.213858181,0.112493906,0.212534696
4.055000000,-2.507066305,6.471641314,7.028803937,0.206535991,0.114941976,0.215571798
4.060000000,-2.532368001,6.488107475,7.014224878,0.207025512,0.110733979,0.223795961
4.065000000,-2.590810173,6.451311856,7.059058077,0.204165335,0.123620918,0.217161956
4.070000000,-2.600646319,6.488732235,6.907593728,0.213843081,0.107041518,0.219613925
4.075000000,-2.479901097,6.528989644,6.906250876,0.216237672,0.106560696,0.210944871
4.080000000,-2.525817144,6.537908153,7.025399122,0.208312766,0.110435398,0.216725345
4.085000000,-2.544785818,6.567257084,6.912252760,0.208818576,0.115319082,0.214298067
4.090000000,-2.588409615,6.535366141,6.902970045,0.205853409,0.108902477,0.211475978
4.095000000,-2.493244277,6.528768695,6.930140483,0.200843314,0.105059189,0.218898217
4.100000000,-2.455494911,6.554004271,6.845918231,0.213316495,0.113823255,0.213072282
4.105000000,-2.529151579,6.485672608,6.832680495,0.210576845,0.123929877,0.229303608
4.110000000,-2.520240441,6.557777823,6.908778158,0.210243058,0.112171066,0.206048553
4.115000000,-2.480943438,6.598413707,6.903784555,0.204607298,0.110541960,0.210162726
4.120000000,-2.531966364,6.553162102,6.958975714,0.208435187,0.105958507,0.212653031
4.125000000,-2.469610533,6.604709113,6.875267619,0.213427344,0.116918772,0.219751740
4.130000000,-2.460991200,6.645517176,6.881429291,0.212389263,0.113014068,0.215658566
4.135000000,-2.471600515,6.534255439,6.894389592,0.208629648,0.110997373,0.212741036
4.140000000,-2.527410169,6.631205365,6.900238100,0.209160201,0.113675187,0.208041974
4.145000000,-2.522001077,6.660175018,6.947013905,0.201682633,0.109487324,0.223986039
4.150000000,-2.442005809,6.714032702,6.808712143,0.212421214,0.114093458,0.220973074
4.155000000,-2.542318970,6.680776000,6.844480646,0.204439507,0.111831632,0.211629274
4.160000000,-2.420653794,6.739887359,6.870047357,0.215306612,0.107721008,0.219677633
4.165000000,-2.590749295,6.630210278,6.870808930,0.212401408,0.111910471,0.218118196
4.170000000,-2.436632890,6.693675790,6.858229244,0.223179807,0.110024518,0.210120876
4.175000000,-2.512603180,6.610020424,6.803329313,0.213947928,0.104883872,0.211189574
4.180000000,-2.401818897,6.662577399,6.732023929,0.206776745,0.109719561,0.218465358
4.185000000,-2.399309837,6.691871233,6.790079506,0.213723394,0.101719876,0.211394697
4.190000000,-2.511228054,6.766006720,6.745532930,0.215467929,0.105440396,0.207016103
4.195000000,-2.363934324,6.746544686,6.720190538,0.197733926,0.107044540,0.221183268
4.200000000,-2.576238301,6.720707845,6.707859022,0.207539894,0.103115374,0.218483434
4.205000000,-2.496380043,6.723445979,6.754003457,0.199820337,0.107077969,0.213503924
4.210000000,-2.535916860,6.857030905,6.770019721,0.208046137,0.103371677,0.207974886
4.215000000,-2.396632966,6.737226699,6.722593213,0.206389624,0.115877623,0.205271432
4.220000000,-2.397051400,6.774822186,6.634951235,0.210324481,0.100499279,0.213039731
4.225000000,-2.419532816,6.823437289,6.554905078,0.209787719,0.098747480,0.219369489
4.230000000,-2.410675402,6.821303640,6.779630101,0.201717544,0.108074951,0.209592801
4.235000000,-2.516770959,6.808410795,6.707064641,0.217525729,0.101884261,0.209983312
4.240000000,-2.410963505,6.800328400,6.648203739,0.211844978,0.108443075,0.209143809
4.245000000,-2.424054683,6.789112392,6.739802914,0.203375463,0.112929369,0.210827619
4.250000000,-2.477145663,6.809904817,6.565990972,0.206712559,0.101615054,0.218319426
4.255000000,-2.510477306,6.757311190,6.635556383,0.211756154,0.098137457,0.220242916
4.260000000,-2.440437860,6.857991354,6.685299339,0.196575891,0.101863290,0.212359549
4.265000000,-2.464901096,6.877314496,6.540019201,0.212750945,0.100920043,0.215352620
4.270000000,-2.464902823,6.901518373,6.691262150,0.204222806,0.110704112,0.205731013
4.275000000,-2.359742387,6.857670684,6.615295800,0.202696105,0.107270887,0.212115642
4.280000000,-2.420783155,6.926458036,6.576627628,0.205788159,0.103319267,0.208546657
4.285000000,-2.470427359,6.837498446,6.608041714,0.203712275,0.102991040,0.215188690
4.290000000,-2.330719408,6.897517419,6.593138939,0.203098753,0.102819736,0.212854257
4.295000000,-2.417757650,6.968543719,6.672523212,0.201892477,0.104456971,0.205172689
4.300000000,-2.370365495,6.967498215,6.529519151,0.205991956,0.109647331,0.209513281
4.305000000,-2.367189454,6.911214652,6.637053030,0.217005336,0.106397309,0.221995848
4.310000000,-2.404542081,7.020165195,6.609009322,0.202094494,0.102641531,0.215020811
4.315000000,-2.483486858,6.909141345,6.569305241,0.205491146,0.099920252,0.210442213
4.320000000,-2.428207921,6.959091404,6.532653568,0.206030330,0.096897774,0.207363780
4.325000000,-2.448207018,6.975555168,6.549944649,0.212396309,0.102613605,0.211965575
4.330000000,-2.345804271,6.981437194,6.445307150,0.212593395,0.109765215,0.210091355
4.335000000,-2.361570553,6.943816570,6.455698709,0.205960711,0.104766329,0.208302196
4.340000000,-2.372582750,7.001200354,6.470335629,0.210593885,0.108327600,0.226187911
4.345000000,-2.330673717,6.983880436,6.442641877,0.203489697,0.106102230,0.196318507
4.350000000,-2.357824190,7.027098970,6.423030737,0.201231793,0.098662949,0.212230647
4.355000000,-2.340493493,7.032919503,6.510327007,0.208793612,0.100632889,0.214545817
4.360000000,-2.420155971,7.043181656,6.587009418,0.215320709,0.103557523,0.211355629
4.365000000,-2.425726907,7.050383321,6.478886344,0.204925348,0.108078277,0.216479822
4.370000000,-2.381132860,7.031823009,6.509067506,0.205336510,0.107470950,0.217978105
4.375000000,-2.235778262,7.039253161,6.514646829,0.194438248,0.108078473,0.211474707
4.380000000,-2.286035306,7.055330087,6.401772524,0.207324545,0.107719263,0.209329894
4.385000000,-2.312946487,7.172232453,6.485834176,0.214800457,0.101882820,0.209768819
4.390000000,-2.403124005,7.112477890,6.377920183,0.203774012,0.108321503,0.208315757
4.395000000,-2.356543997,7.102067959,6.415762432,0.209411960,0.098595943,0.209541020
4.400000000,-2.386302555,7.184671571,6.408957696,0.208062919,0.089738032,0.205770047
4.405000000,-2.368196696,7.128369783,6.355414112,0.211483932,0.094102538,0.211464771
4.410000000,-2.304392292,7.086125589,6.329294002,0.208307994,0.098713175,0.211490574
4.415000000,-2.454689001,7.130886748,6.390012433,0.192504407,0.102582484,0.202702007
4.420000000,-2.389755907,7.145405515,6.306558705,0.206674327,0.094234344,0.214269796
4.425000000,-2.279250590,7.118102218,6.421506044,0.200651492,0.097872148,0.211958464
4.430000000,-2.266294223,7.107700817,6.317339425,0.205682857,0.105782344,0.208418652
4.435000000,-2.268374040,7.129248379,6.241166319,0.209806476,0.098809325,0.203452380
4.440000000,-2.283852847,7.163362833,6.316021356,0.197897989,0.097482220,0.206527871
4.445000000,-2.238936059,7.162962702,6.358391501,0.215780046,0.091689910,0.211505490
4.450000000,-2.312906908,7.205308542,6.359441480,0.206887727,0.101804266,0.213394392
4.455000000,-2.440246997,7.232910133,6.244448147,0.205742713,0.104783610,0.201058720
4.460000000,-2.271701788,7.221909866,6.246949728,0.206581794,0.097643389,0.211323221
4.465000000,-2.297459551,7.259750293,6.328840023,0.206267196,0.105020080,0.209467484
4.470000000,-2.217206346,7.209508632,6.262557065,0.202174596,0.092104815,0.204960748
4.475000000,-2.179477815,7.225845052,6.310112431,0.198105349,0.100775200,0.211617708
4.480000000,-2.320331606,7.225022654,6.186514888,0.210894546,0.101291792,0.213464621
4.485000000,-2.254980151,7.241653836,6.262193970,0.206077695,0.098103539,0.223164361
4.490000000,-2.292554377,7.253647671,6.280327365,0.205360072,0.092077226,0.206217328
4.495000000,-2.219731799,7.214570502,6.186359320,0.203374187,0.099667995,0.210034890
4.500000000,-2.199446225,7.258815955,6.272446503,0.206353050,0.100590616,0.205719037
4.505000000,-2.240626868,7.313977056,6.201383685,0.207609510,0.089412575,0.199394043
4.510000000,-2.224441905,7.315002517,6.132350304,0.199982921,0.099524370,0.210907229
4.515000000,-2.210092617,7.256677190,6.263298553,0.204052717,0.101078349,0.207400567
4.520000000,-2.235426069,7.270213602,6.151127521,0.205249389,0.098771158,0.206244311
4.525000000,-2.223787432,7.287931246,6.146476433,0.203287292,0.092831183,0.219399756
4.530000000,-2.229669726,7.238367611,6.169738634,0.201933435,0.093411518,0.198870251
4.535000000,-2.133623001,7.337923835,6.101821756,0.198556298,0.098627947,0.209401603
4.540000000,-2.207398638,7.416659019,6.140245092,0.197393802,0.101622877,0.193585083
4.545000000,-2.188380715,7.388482523,6.120685791,0.203349474,0.098379370,0.213610411
4.550000000,-2.224451594,7.355672515,6.183054125,0.202236657,0.095569358,0.201718810
4.555000000,-2.147420073,7.248721056,6.159759672,0.207628904,0.097833777,0.202892359
4.560000000,-2.184824446,7.330818049,6.023199279,0.207815099,0.094508128,0.208766657
4.565000000,-2.299458821,7.451246972,6.071039727,0.199680723,0.094476162,0.207197732
4.570000000,-2.241952518,7.424757696,6.124031120,0.199066769,0.095292973,0.203338905
4.575000000,-2.236313287,7.453524011,6.105512254,0.212397587,0.096432423,0.204797700
4.580000000,-2.173664023,7.439658347,6.061319956,0.208229894,0.092802047,0.214209975
4.585000000,-2.075522518,7.455413403,6.138339156,0.201622684,0.088095954,0.203874393
4.590000000,-2.149465864,7.418846393,6.030387256,0.207937245,0.099688413,0.203764875
4.595000000,-2.266686423,7.351329043,6.039431149,0.196167255,0.090863160,0.208367406
4.600000000,-2.104222941,7.479719764,6.079802868,0.208730697,0.097494649,0.198147414
4.605000000,-2.208902442,7.472394094,6.111949127,0.192778805,0.092529663,0.208039510
4.610000000,-2.198556845,7.473086624,5.957661398,0.196908097,0.094769586,0.203076444
4.615000000,-2.093161660,7.483238302,5.996675846,0.204398535,0.096570748,0.198812488
4.620000000,-2.172156419,7.464153246,6.004725362,0.194018622,0.089672228,0.208341921
4.625000000,-2.153552811,7.457937203,6.036042720,0.201828191,0.098194505,0.201715468
4.630000000,-2.171836920,7.499725178,5.963245740,0.187294193,0.104168200,0.213859935
4.635000000,-2.146799045,7.430052470,5.980318539,0.185350278,0.102660853,0.209109577
4.640000000,-2.077402528,7.509275051,5.990213311,0.200665904,0.094235600,0.208220043
4.645000000,-2.135570213,7.559524396,5.976857299,0.212275020,0.089749284,0.205720554
4.650000000,-2.206548037,7.539514640,5.943776355,0.209974387,0.088082188,0.208423707
4.655000000,-2.110975141,7.577220601,5.937016464,0.193052175,0.090239827,0.209172835
4.660000000,-2.052232815,7.583723756,6.005540577,0.196905814,0.090214492,0.203163941
4.665000000,-2.082876407,7.595371157,5.864194044,0.198033582,0.095586108,0.208536651
4.670000000,-2.207025749,7.527344366,5.882112688,0.206118793,0.088598304,0.206428106
4.675000000,-2.065713425,7.675998381,5.983812534,0.198124067,0.099674571,0.213105473
4.680000000,-2.046362666,7.627891536,5.918893720,0.202222177,0.097155363,0.204744671
4.685000000,-2.143408049,7.577461859,5.884741583,0.208588077,0.090341181,0.202043339
4.690000000,-2.151353067,7.633098817,5.858432090,0.199063561,0.093992606,0.212177745
4.695000000,-2.124401640,7.542939951,5.917959668,0.208066686,0.098235565,0.195826923
4.700000000,-2.006097830,7.649787978,5.836324792,0.199657575,0.091625219,0.199547415
4.705000000,-2.061375663,7.681034127,5.842431717,0.205900050,0.094187341,0.204141586
4.710000000,-2.125104315,7.632938119,5.852051638,0.202282411,0.096885425,0.212896824
4.715000000,-2.129473101,7.638022041,5.837735545,0.201223665,0.094457950,0.193134330
4.720000000,-2.077300721,7.641522998,5.821965477,0.197629131,0.091747339,0.201024525
4.725000000,-2.104434059,7.623350745,5.754555581,0.194636349,0.093542654,0.192926834
4.730000000,-2.008555710,7.689901011,5.798745172,0.190687741,0.089677125,0.195789833
4.735000000,-2.051284870,7.722973384,5.817846508,0.201693558,0.096624247,0.200065144
4.740000000,-2.010351670,7.705978662,5.784566156,0.198440062,0.095519122,0.198720547
4.745000000,-2.054689692,7.678373140,5.821391751,0.199916564,0.099742616,0.206315438
4.750000000,-2.059927561,7.709982486,5.782013381,0.202606935,0.092528353,0.208979422
4.755000000,-1.994931918,7.729460054,5.771838032,0.189540431,0.089925827,0.198608247
4.760000000,-2.012748550,7.740057708,5.759571771,0.183442286,0.088837615,0.196792625
4.765000000,-1.921728837,7.680521978,5.780908660,0.205600976,0.088195700,0.200280914
4.770000000,-2.054332886,7.641086313,5.761561290,0.194126460,0.096689624,0.202551151
4.775000000,-1.961998888,7.767719541,5.831021272,0.191618235,0.085652154,0.204504203
4.780000000,-2.064288117,7.761187658,5.754493711,0.196165244,0.086271139,0.200495973
4.785000000,-1.955601005,7.721329324,5.627376486,0.203083032,0.087066479,0.198388788
4.790000000,-2.005307602,7.722473519,5.609425602,0.197242985,0.097953542,0.198392237
4.795000000,-1.971317085,7.786583468,5.708994680,0.199570404,0.084439500,0.204012695
4.800000000,-2.008009730,7.763963499,5.770941067,0.202405842,0.086014412,0.198344082
4.805000000,-2.097578947,7.754863780,5.695256324,0.199592714,0.079565197,0.194574229
4.810000000,-2.049764055,7.852023079,5.710661116,0.199557390,0.090277483,0.200169323
4.815000000,-1.877768904,7.796754569,5.723567035,0.193527640,0.094204308,0.200641245
4.820000000,-1.961105097,7.691194379,5.707690671,0.192668320,0.085926890,0.193712124
4.825000000,-1.972442071,7.858724273,5.686376263,0.196997561,0.078143713,0.199342983
4.830000000,-1.968707560,7.753752063,5.631116471,0.196376618,0.085661697,0.197690679
4.835000000,-2.105170706,7.802471274,5.630792625,0.199822017,0.088072630,0.198183844
4.840000000,-1.958675191,7.783075267,5.684385190,0.200551496,0.089156027,0.199862977
4.845000000,-1.912379879,7.860280630,5.666897597,0.201515680,0.093339582,0.196970387
4.850000000,-1.971882461,7.872791008,5.651754559,0.186957124,0.091366743,0.197240447
4.855000000,-1.956022135,7.895052325,5.642076178,0.199532160,0.085458612,0.189805186
4.860000000,-1.922575643,7.847192425,5.541678772,0.193270260,0.092134042,0.208661090
4.865000000,-1.903173265,7.836029298,5.566838529,0.199979622,0.085306898,0.190890858
4.870000000,-1.856942595,7.964394650,5.534147476,0.186379932,0.078284016,0.202804457
4.875000000,-1.975034599,7.814622934,5.577434654,0.196548115,0.094467827,0.200051940
4.880000000,-1.856356820,7.879548176,5.570062625,0.199163246,0.087964353,0.196045824
4.885000000,-1.880885172,7.922330071,5.488268222,0.193938011,0.083545901,0.195773412
4.890000000,-1.879038139,7.894487600,5.434879890,0.197557976,0.078920745,0.202930606
4.895000000,-1.919431474,7.849457685,5.541740766,0.193803467,0.081816052,0.199716903
4.900000000,-1.864451137,7.951736870,5.520834949,0.198127396,0.084807427,0.195274332
4.905000000,-1.912015953,7.876683747,5.531527289,0.196557214,0.087710175,0.196292229
4.910000000,-1.946847843,7.850343329,5.487698533,0.193000259,0.084172348,0.206870484
4.915000000,-1.860547103,7.939834436,5.435068731,0.197605932,0.087820511,0.199128630
4.920000000,-1.894503045,7.936666524,5.455061839,0.187659179,0.086517373,0.190920729
4.925000000,-1.811253817,7.878385743,5.525830990,0.195755514,0.094485821,0.196678589
4.930000000,-1.817044533,7.884232652,5.535722170,0.195084125,0.091455262,0.182820753
4.935000000,-1.915869440,7.983158221,5.422502407,0.188694714,0.079370864,0.203650153
4.940000000,-1.908983181,7.952096530,5.322888197,0.200197838,0.081273167,0.201830568
4.945000000,-1.836882356,8.033855622,5.455824627,0.203264085,0.079403926,0.205398475
4.950000000,-1.755461009,8.022001264,5.455953109,0.192950019,0.078029040,0.200527218
4.955000000,-1.811402880,7.997100515,5.438325572,0.199992153,0.084985847,0.201883767
4.960000000,-1.811441131,8.064689783,5.393128323,0.194939181,0.086614822,0.193458806
4.965000000,-1.878689434,8.043214744,5.381447993,0.191365829,0.085344116,0.198535288
4.970000000,-1.832494904,8.051594138,5.419827919,0.191677251,0.072367054,0.192135282
4.975000000,-1.862525826,8.050024772,5.415428859,0.190038825,0.085548641,0.186389363
4.980000000,-1.816070189,8.076450216,5.375215757,0.193215898,0.086654223,0.189951882
4.985000000,-1.850335956,8.101675441,5.364871146,0.188116004,0.082444905,0.190657208
4.990000000,-1.807344874,7.975830024,5.395140034,0.200468722,0.082288031,0.187204036
4.995000000,-1.744978425,7.968004047,5.342433158,0.196211421,0.081143695,0.203640167
5.000000000,-1.799184949,8.040423898,5.364986944,0.189570900,0.080982379,0.198815934
5.005000000,-1.863744588,8.066232557,5.336993419,0.197038332,0.071594133,0.202755105
5.010000000,-1.863015908,8.178149326,5.362548289,0.185021838,0.083018326,0.190919457
5.015000000,-1.819015786,8.051048755,5.333005651,0.193139173,0.085483352,0.198659212
5.020000000,-1.834492843,8.077472282,5.308593228,0.184956342,0.086285456,0.191697178
5.025000000,-1.717269279,8.121034901,5.323668633,0.191538826,0.084835359,0.195335033
5.030000000,-1.874440030,7.983936365,5.256932458,0.192444284,0.075137627,0.199597491
5.035000000,-1.699628437,8.062494199,5.263066263,0.186715612,0.088183402,0.201172396
5.040000000,-1.793492156,8.128840643,5.226751313,0.187874113,0.083702614,0.189183287
5.045000000,-1.727361802,8.084269916,5.279407554,0.200435519,0.075611748,0.193480463
5.050000000,-1.776044993,8.113368007,5.307190171,0.189210570,0.079801059,0.191442094
5.055000000,-1.719417272,8.151087527,5.234405277,0.189744627,0.076939814,0.186723007
5.060000000,-1.612211866,8.169922164,5.227727075,0.202711775,0.077826786,0.190680706
5.065000000,-1.681972847,8.115689831,5.217773077,0.192889691,0.080488517,0.193551135
5.070000000,-1.730573016,8.150837560,5.197403681,0.192555166,0.083577933,0.198504642
5.075000000,-1.795254580,8.122759259,5.250464254,0.194203801,0.082295016,0.192782798
5.080000000,-1.738424804,8.191689969,5.217385804,0.181447677,0.069630212,0.184447955
5.085000000,-1.788379566,8.118260426,5.176954682,0.185487183,0.083919958,0.198422858
5.090000000,-1.772761475,8.150670634,5.053622330,0.188558590,0.081525103,0.197070577
5.095000000,-1.801124865,8.255241648,5.115041239,0.184488755,0.073425043,0.183474560
5.100000000,-1.806749860,8.214055621,5.177737278,0.186504823,0.078282243,0.192843225
5.105000000,-1.675250534,8.245544981,5.249581288,0.187339005,0.082930495,0.188491892
5.110000000,-1.570579315,8.171949054,5.093918266,0.187232542,0.076451925,0.194182961
5.115000000,-1.732037787,8.289374395,5.258102211,0.189696975,0.086275643,0.188767653
5.120000000,-1.696375836,8.257418344,5.052385552,0.180587073,0.062364812,0.190030300
5.125000000,-1.685203353,8.246498485,5.184897252,0.175597674,0.072635961,0.194314267
5.130000000,-1.650349603,8.292254806,5.205848429,0.193965305,0.078859600,0.180939441
5.135000000,-1.624871287,8.280760198,5.108640582,0.193142927,0.074646535,0.188793272
5.140000000,-1.607203468,8.213788672,5.028853512,0.191364425,0.080778840,0.184156042
5.145000000,-1.662612675,8.278519434,5.093778604,0.184399495,0.069435662,0.182028713
5.150000000,-1.611825707,8.196895329,5.089003404,0.184416627,0.081514425,0.187939272
5.155000000,-1.654120609,8.285161345,5.055324464,0.179214467,0.065471231,0.185991660
5.160000000,-1.616917148,8.267398622,5.071434635,0.182809116,0.069839316,0.177954641
5.165000000,-1.630994238,8.286515711,5.002462022,0.192324383,0.081679850,0.195632530
5.170000000,-1.664349454,8.249416864,5.108567966,0.183983271,0.078716218,0.188402611
5.175000000,-1.545639991,8.212792086,5.047400636,0.181676171,0.079710463,0.193168789
5.180000000,-1.550246807,8.332574167,5.045681171,0.184342763,0.080322071,0.192443439
5.185000000,-1.574420546,8.345668612,5.002081706,0.187579198,0.070536467,0.193525256
5.190000000,-1.547093720,8.217182833,4.995242629,0.180871130,0.076456117,0.179069345
5.195000000,-1.570719887,8.238135716,4.986580387,0.184977183,0.073215922,0.182391429
5.200000000,-1.615579442,8.243586026,5.104130416,0.183639352,0.071795735,0.192611342
5.205000000,-1.627475679,8.318457927,5.010058023,0.177179318,0.080474224,0.195488792
5.210000000,-1.595724180,8.292164070,5.024545051,0.180978687,0.069622445,0.182500258
5.215000000,-1.548668679,8.339443085,5.045090553,0.192743676,0.078177747,0.185848019
5.220000000,-1.560739211,8.370500393,4.976300376,0.185641786,0.075233281,0.192623025
5.225000000,-1.484627349,8.380888013,5.048040306,0.187858467,0.071239025,0.181456973
5.230000000,-1.497099880,8.361911132,4.942233726,0.177961199,0.076127330,0.186880410
5.235000000,-1.508542460,8.365179538,4.985755647,0.180717912,0.073266795,0.194997989
5.240000000,-1.470824174,8.439735919,4.973921386,0.186420786,0.077975066,0.182241460
5.245000000,-1.568556572,8.365767316,4.935396881,0.182878911,0.067876083,0.192295126
5.250000000,-1.492479198,8.280557034,4.949298838,0.187316411,0.071086353,0.185196231
5.255000000,-1.568070279,8.466411193,4.938885991,0.185216901,0.080059276,0.189949817
5.260000000,-1.421095643,8.353081101,4.940944062,0.186693219,0.068692807,0.184724445
5.265000000,-1.528278147,8.231256725,4.841051341,0.179761573,0.076605490,0.178294101
5.270000000,-1.501146975,8.395588591,4.897662799,0.181443980,0.069337253,0.179077275
5.275000000,-1.425864523,8.449096906,4.865709593,0.175495281,0.065943035,0.193466472
5.280000000,-1.510298786,8.465358674,4.866634882,0.192103906,0.070021309,0.188563798
5.285000000,-1.458264535,8.371483471,4.861468995,0.175567422,0.065559564,0.193729198
5.290000000,-1.507418361,8.454975423,4.858188304,0.183526206,0.066648419,0.192315151
5.295000000,-1.564235671,8.447307912,4.789286122,0.181866273,0.076322062,0.189292457
5.300000000,-1.454388715,8.400097385,4.820767672,0.177335561,0.071426947,0.188887527
5.305000000,-1.600433669,8.486686323,4.796871278,0.181441878,0.064020108,0.191385811
5.310000000,-1.456149673,8.433679212,4.779592127,0.179642170,0.072800480,0.191282438
5.315000000,-1.406481049,8.568186655,4.778214270,0.178462558,0.068751941,0.192702156
5.320000000,-1.386424900,8.426863189,4.860166312,0.180282624,0.071897932,0.192399445
5.325000000,-1.512791123,8.500419520,4.853930382,0.169147775,0.072908635,0.180003683
5.330000000,-1.405547016,8.376912048,4.757613562,0.181006586,0.060125966,0.187360814
5.335000000,-1.487525198,8.562993730,4.838377530,0.176699888,0.066316920,0.177719092
5.340000000,-1.439820049,8.468009141,4.838865328,0.169430713,0.070777974,0.176184640
5.345000000,-1.375862269,8.410163120,4.679696360,0.175210179,0.064927492,0.194642775
5.350000000,-1.438640493,8.495185294,4.710973947,0.173812113,0.069472847,0.185838048
5.355000000,-1.464294547,8.448452028,4.741983085,0.178009553,0.066404582,0.191160890
5.360000000,-1.463251984,8.534609274,4.725129254,0.170840354,0.062375907,0.186613162
5.365000000,-1.438583445,8.526184161,4.693686156,0.182188133,0.067126450,0.187157889
5.370000000,-1.465993056,8.539834112,4.685373606,0.174216323,0.071956334,0.180142283
5.375000000,-1.347717174,8.464824663,4.724429157,0.179105859,0.066744679,0.189334918
5.380000000,-1.350229845,8.489156792,4.663483391,0.180584073,0.065545622,0.190567302
5.385000000,-1.442284288,8.468977943,4.690331437,0.186351417,0.051882082,0.183208157
5.390000000,-1.362532284,8.556041065,4.802074090,0.175709257,0.063713674,0.186121774
5.395000000,-1.380781849,8.568304077,4.620523860,0.177000056,0.074459359,0.194077011
5.400000000,-1.291543120,8.525238487,4.727431836,0.180165652,0.062524627,0.183198485
5.405000000,-1.354795124,8.599917275,4.752694664,0.172615059,0.067227061,0.187597468
5.410000000,-1.360015393,8.597311011,4.736979335,0.177106522,0.071286911,0.178445233
5.415000000,-1.350982688,8.516215805,4.716885175,0.178447080,0.072849914,0.171420093
5.420000000,-1.366361841,8.486675522,4.653948926,0.172008220,0.066005707,0.185510514
5.425000000,-1.410736186,8.492915737,4.612098753,0.170377715,0.062577983,0.184769188
5.430000000,-1.256687526,8.626322783,4.593650990,0.178116933,0.058498201,0.185071083
5.435000000,-1.306434569,8.571009667,4.656203330,0.180238996,0.062661752,0.174323689
5.440000000,-1.254409910,8.632471791,4.621988035,0.172190043,0.061096228,0.186360195
5.445000000,-1.286507315,8.630832827,4.579974397,0.174339548,0.070700010,0.173881996
5.450000000,-1.322816119,8.632952777,4.604081740,0.171073783,0.059681613,0.184663229
5.455000000,-1.254507449,8.546208784,4.621447075,0.164810337,0.060157789,0.174225614
5.460000000,-1.327068203,8.564461782,4.584030471,0.168333605,0.068880074,0.172589932
5.465000000,-1.247280884,8.534365488,4.583575571,0.180553742,0.071060315,0.194098193
5.470000000,-1.310445344,8.612799072,4.600194198,0.173536361,0.060247798,0.184584431
5.475000000,-1.254047523,8.616643025,4.478991424,0.172635519,0.051429846,0.187930628
5.480000000,-1.250165339,8.630285242,4.609201420,0.174945593,0.065438285,0.171560117
5.485000000,-1.273062036,8.560851616,4.452832335,0.169642508,0.069281658,0.189775747
5.490000000,-1.272465060,8.592262838,4.446265952,0.166877990,0.062877723,0.177028621
5.495000000,-1.210837159,8.579841040,4.614754926,0.167666654,0.055090146,0.172398601
5.500000000,-1.174801693,8.665631741,4.532263393,0.171143663,0.051614540,0.179106194
5.505000000,-1.184805340,8.586141304,4.501762809,0.171797752,0.062053264,0.182280603
5.510000000,-1.267127259,8.655867073,4.640420117,0.176121743,0.070157046,0.182705842
5.515000000,-1.147994868,8.676938263,4.414015858,0.173052935,0.066568848,0.187727623
5.520000000,-1.221235833,8.603605928,4.521297453,0.166526841,0.067597561,0.179766682
5.525000000,-1.162787948,8.593465583,4.570350948,0.167722919,0.057945689,0.185353381
5.530000000,-1.216865491,8.716719518,4.478513031,0.151271507,0.053464827,0.174581291
5.535000000,-1.158202754,8.698820400,4.539447781,0.164585004,0.062701391,0.172392288
5.540000000,-1.168818639,8.665502719,4.393235475,0.169313758,0.065850903,0.181764470
5.545000000,-1.178878081,8.639834315,4.559649926,0.175856663,0.064153492,0.179884761
5.550000000,-1.221195567,8.608800029,4.445722043,0.172535322,0.075631505,0.178932621
5.555000000,-1.233653310,8.633322505,4.507319108,0.166923792,0.072247464,0.166116880
5.560000000,-1.191843480,8.765911695,4.465588892,0.168234948,0.061394285,0.175014655
5.565000000,-1.173810043,8.672965675,4.442234526,0.177675081,0.055378200,0.173144696
5.570000000,-1.147425454,8.756598722,4.407049160,0.162295452,0.061491830,0.176354689
5.575000000,-1.087762546,8.672376259,4.385025903,0.164276466,0.056085405,0.172408074
5.580000000,-1.263524237,8.704142476,4.445568684,0.165443391,0.056808910,0.172264756
5.585000000,-1.075066568,8.847482957,4.348732889,0.165363145,0.060294739,0.178896908
5.590000000,-1.083204785,8.720977908,4.316970950,0.167352847,0.052183591,0.181726383
5.595000000,-1.123334060,8.714468290,4.309886162,0.163638862,0.061149604,0.170271005
5.600000000,-1.070709639,8.700290656,4.294829122,0.175659123,0.055369191,0.181130350
5.605000000,-1.148641606,8.821442322,4.348351511,0.164722424,0.057602656,0.180557988
5.610000000,-1.176142230,8.675470539,4.299794476,0.170738180,0.054652068,0.170986471
5.615000000,-1.160120071,8.759191107,4.281857226,0.166284663,0.057639757,0.175451976
5.620000000,-1.114513210,8.792683872,4.273060407,0.162774236,0.055401385,0.172984937
5.625000000,-0.993947345,8.803756276,4.251018479,0.166595944,0.056029820,0.177865183
5.630000000,-0.975447870,8.853776445,4.320658985,0.155586650,0.059118016,0.181872574
5.635000000,-1.058020889,8.786111029,4.310898153,0.163560250,0.054760855,0.166458246
5.640000000,-1.076283886,8.758685079,4.239882724,0.157041797,0.061378701,0.178995455
5.645000000,-1.076593387,8.788531840,4.309252097,0.166461928,0.061377464,0.166788252
5.650000000,-1.114543588,8.814014896,4.269386313,0.169735046,0.053325744,0.180341218
5.655000000,-0.990676338,8.839253481,4.304768915,0.161169051,0.061242052,0.176399466
5.660000000,-1.077618906,8.831385900,4.216666889,0.162945041,0.059319147,0.171763605
5.665000000,-1.040592109,8.787513995,4.282072243,0.164880122,0.057145891,0.178393523
5.670000000,-1.037384820,8.779896095,4.190537224,0.166130457,0.046525311,0.187966864
5.675000000,-0.979026322,8.852392511,4.243620672,0.158757795,0.057099606,0.166715827
5.680000000,-0.947762090,8.808298082,4.249975260,0.159355663,0.055749729,0.178650355
5.685000000,-0.978261008,8.796081735,4.263292196,0.157595718,0.059450242,0.171859159
5.690000000,-1.071140142,8.818424988,4.224343685,0.158925894,0.060528073,0.171373711
5.695000000,-1.047749046,8.868092136,4.162144331,0.160809721,0.061058823,0.177656816
5.700000000,-1.031127441,8.836613672,4.247040044,0.158833463,0.052857787,0.178607948
5.705000000,-0.971517993,8.831817628,4.236289677,0.159413788,0.050720014,0.176451355
5.710000000,-0.962687547,8.903589866,4.170331934,0.155844803,0.048708893,0.178347521
5.715000000,-1.082641622,8.834985299,4.268410259,0.158722467,0.054782465,0.178461171
5.720000000,-1.115144999,8.779594364,4.115857588,0.158559717,0.051143641,0.179194071
5.725000000,-0.977489292,8.871757656,4.237137261,0.172455340,0.049774257,0.175781868
5.730000000,-0.944318579,8.852490118,4.166605452,0.151384917,0.045901093,0.174653740
5.735000000,-1.002931145,8.756809934,4.235450219,0.158554544,0.056742835,0.177931411
5.740000000,-0.993436100,8.898339992,4.197138960,0.148534704,0.053795929,0.177906839
5.745000000,-0.974403814,8.930463175,4.189194503,0.160119661,0.055787031,0.184461530
5.750000000,-0.970714817,8.851135813,4.084088108,0.154438466,0.049041030,0.179824172
5.755000000,-0.911443998,8.818956297,4.122194054,0.161853321,0.060706084,0.172793259
5.760000000,-0.915247998,8.823065150,4.119074161,0.156934209,0.053858395,0.173816993
5.765000000,-0.898887638,8.837104569,4.116518323,0.160228423,0.062854531,0.177211493
5.770000000,-0.916461369,8.915594476,4.140397167,0.158963424,0.048621830,0.182687053
5.775000000,-0.901448683,8.931956418,4.097390085,0.150206954,0.049450342,0.176444877
5.780000000,-0.917178360,8.916286415,4.126413815,0.152131701,0.053219558,0.175594213
5.785000000,-0.941452036,8.798895473,4.188106478,0.157100924,0.041168233,0.175598228
5.790000000,-0.865028436,8.870376440,4.079060902,0.158379879,0.059375000,0.176136008
5.795000000,-0.937681346,8.902374650,4.026900077,0.155604597,0.047642814,0.175898701
5.800000000,-0.919844319,8.950068932,4.096964693,0.161750656,0.047736087,0.168330070
5.805000000,-0.917459188,8.949687149,4.121064491,0.155900996,0.050478241,0.169077271
5.810000000,-0.777516035,8.885052602,4.106714003,0.151920064,0.046039624,0.174014414
5.815000000,-0.867768501,8.952188801,4.067010877,0.157532095,0.053587834,0.175673650
5.820000000,-0.819133748,8.963261866,3.985007156,0.157614274,0.055629805,0.164975532
5.825000000,-0.890835635,8.988851703,4.062884397,0.149918580,0.055583659,0.167498488
5.830000000,-0.821337222,8.950433465,4.005798354,0.152760858,0.053462911,0.169996554
5.835000000,-0.898200655,8.869516385,4.001440436,0.157790919,0.050308080,0.171859281
5.840000000,-0.827251883,8.961014086,4.002399326,0.153276033,0.051438643,0.165225804
5.845000000,-0.860606343,8.957682306,3.985409336,0.148051925,0.047351330,0.176376204
5.850000000,-0.762132259,8.939564025,4.115066017,0.161309264,0.040076997,0.175039994
5.855000000,-0.821012512,8.912232435,3.898328183,0.162557493,0.041454798,0.173259973
5.860000000,-0.813871945,8.985642149,4.076482244,0.158512329,0.041481440,0.171612692
5.865000000,-0.894482339,8.919682052,3.819788217,0.143892788,0.058336049,0.169325071
5.870000000,-0.797152827,8.939061516,3.922096460,0.152654274,0.043419199,0.161983960
5.875000000,-0.812189739,8.980710017,3.902920680,0.159967910,0.049811760,0.169517701
5.880000000,-0.748529735,9.044337749,3.947442495,0.145580020,0.041177466,0.167999709
5.885000000,-0.803600800,9.028160367,3.979644165,0.157850485,0.047193444,0.173693017
5.890000000,-0.802653317,8.915278753,3.847708251,0.145078264,0.056605976,0.175765178
5.895000000,-0.788277997,8.943947961,4.011573490,0.161720287,0.040787653,0.167507697
5.900000000,-0.817770466,8.899214126,3.882554599,0.147446518,0.047409452,0.167521055
5.905000000,-0.772143169,9.040955847,3.933713984,0.148416359,0.046934736,0.169340629
5.910000000,-0.687293341,8.994405909,3.941212896,0.149770005,0.045365132,0.162105152
5.915000000,-0.782631731,8.965772541,3.760853412,0.151139093,0.053120191,0.160753105
5.920000000,-0.809709290,9.018291427,3.898220227,0.150021712,0.040746423,0.173039627
5.925000000,-0.750214599,8.899567592,3.890563543,0.151104635,0.050716571,0.172100945
5.930000000,-0.674125763,8.967396403,3.809232229,0.147140850,0.042437448,0.165852447
5.935000000,-0.617009515,8.999656868,3.926332672,0.137361527,0.050827627,0.175578220
5.940000000,-0.718860331,9.042880043,3.903264954,0.152415946,0.045453867,0.175819099
5.945000000,-0.764595079,8.995466659,3.983723996,0.154053680,0.040582399,0.164790468
5.950000000,-0.746377121,9.015479145,3.834537923,0.145407893,0.039020959,0.170183481
5.955000000,-0.759925361,9.009171240,3.862112564,0.149783029,0.042741390,0.170646165
5.960000000,-0.716006462,9.039670202,3.825839922,0.147316826,0.045899505,0.163401758
5.965000000,-0.643975936,9.093435616,3.867175356,0.153863656,0.042138791,0.176013560
5.970000000,-0.634232576,9.006443839,3.851058135,0.145535386,0.038859489,0.169531655
5.975000000,-0.729113613,9.100317226,3.821164020,0.148248530,0.052018492,0.166221752
5.980000000,-0.640319620,8.917119498,3.782410234,0.155373795,0.044878763,0.175588943
5.985000000,-0.729045714,9.052662988,3.848951423,0.155166662,0.040683357,0.165560404
5.990000000,-0.644670433,9.128041870,3.777517818,0.141779707,0.037844653,0.176805990
5.995000000,-0.626040897,9.068455660,3.738504286,0.150316785,0.040085698,0.170806161
6.000000000,-0.716480632,9.036774503,3.887594968,0.149989129,0.044688883,0.167658958
6.005000000,-0.582869475,9.079480516,3.802756931,0.142641392,0.037564683,0.169406474
6.010000000,-0.655921087,9.071788313,3.849753220,0.136941871,0.054783731,0.165833568
6.015000000,-0.654688893,9.074223495,3.753292914,0.131433927,0.035555254,0.166103017
6.020000000,-0.566555943,9.054241077,3.776811313,0.142007909,0.047093328,0.169861206
6.025000000,-0.655213850,9.097409074,3.742598181,0.143484545,0.032148476,0.165950439
6.030000000,-0.591889366,9.019089727,3.729142996,0.145045894,0.044112852,0.162051544
6.035000000,-0.635895887,9.118185645,3.672155626,0.147679954,0.043875035,0.164408458
6.040000000,-0.682220781,8.990168682,3.741858846,0.140739703,0.041331778,0.164986107
6.045000000,-0.589414752,8.948043690,3.753650145,0.140623031,0.030194650,0.169899703
6.050000000,-0.620190946,9.031507273,3.711569266,0.148120114,0.038309002,0.170190335
6.055000000,-0.572932329,9.166943507,3.810809771,0.142068294,0.042277676,0.171254485
6.060000000,-0.598604571,9.127898419,3.626876545,0.134874446,0.035209063,0.165694014
6.065000000,-0.634409638,9.042777953,3.694798379,0.144749966,0.036024661,0.161911388
6.070000000,-0.477139004,9.071847817,3.680455388,0.140368845,0.039516764,0.167504894
6.075000000,-0.599521223,9.064415449,3.700151377,0.140204608,0.044108980,0.160616558
6.080000000,-0.614158879,9.170607209,3.618360246,0.137895688,0.040750602,0.164731811
6.085000000,-0.507257675,9.098243186,3.533848338,0.146541738,0.039583133,0.167619539
6.090000000,-0.551164375,9.099663579,3.748690150,0.128884884,0.032848765,0.173029281
6.095000000,-0.537039447,9.121739910,3.639393872,0.139690254,0.039302394,0.154011141
6.100000000,-0.552505881,9.093405497,3.642030468,0.143661304,0.040568809,0.166921622
6.105000000,-0.479274696,9.050944773,3.656789229,0.142993032,0.038413669,0.164164289
6.110000000,-0.505839845,9.087248439,3.682206801,0.138931108,0.050428370,0.154767288
6.115000000,-0.520999684,9.200626712,3.607425870,0.125570222,0.036713401,0.159598821
6.120000000,-0.534844721,9.118292435,3.623421281,0.132509800,0.033852439,0.159853543
6.125000000,-0.470308305,9.102059965,3.693714395,0.142185566,0.025536252,0.170440926
6.130000000,-0.480857191,9.119818590,3.546301071,0.135486487,0.043800989,0.170934393
6.135000000,-0.443835893,9.159341046,3.537209913,0.134007803,0.032416317,0.164302761
6.140000000,-0.455452233,9.128060633,3.575434649,0.141077448,0.026437740,0.155898902
6.145000000,-0.487994500,9.210117373,3.590358900,0.127757853,0.035182751,0.164315159
6.150000000,-0.466865216,9.085752079,3.649751670,0.133091339,0.032729443,0.166538931
6.155000000,-0.395671805,9.135413216,3.483339839,0.137325131,0.030298521,0.164289596
6.160000000,-0.391635257,9.075750375,3.620390583,0.141932420,0.034442151,0.168652612
6.165000000,-0.456673846,9.184800990,3.507435816,0.141001661,0.021191040,0.163300015
6.170000000,-0.430780257,9.180520019,3.599079960,0.138371886,0.038550670,0.158970550
6.175000000,-0.366341816,9.167697947,3.610233784,0.130590205,0.042706962,0.155606835
6.180000000,-0.453395379,9.154336287,3.611220022,0.139536275,0.024397295,0.156644193
6.185000000,-0.412864339,9.130807741,3.508272452,0.129700322,0.041674165,0.153477067
6.190000000,-0.335608055,9.100613630,3.571043976,0.135498897,0.033521984,0.160899365
6.195000000,-0.360474861,9.265864418,3.549830119,0.133091957,0.038516217,0.166751593
6.200000000,-0.398311161,9.150995132,3.574114361,0.129283043,0.038277129,0.165430711
6.205000000,-0.427470289,9.131763890,3.494292141,0.133401956,0.030806597,0.157339935
6.210000000,-0.381098780,9.248136789,3.615760189,0.124602969,0.031087330,0.154190275
6.215000000,-0.306383460,9.164374308,3.519371476,0.122710992,0.040925464,0.158795588
6.220000000,-0.454736742,9.196906801,3.520528996,0.136472465,0.028402042,0.155787968
6.225000000,-0.337589446,9.183620280,3.505980168,0.129605106,0.036188779,0.157520808
6.230000000,-0.342797730,9.175582112,3.572556602,0.125041905,0.032628542,0.149315152
6.235000000,-0.361384517,9.293739766,3.468409457,0.137897224,0.029605281,0.168886528
6.240000000,-0.292093346,9.145048650,3.480250059,0.125164582,0.029777542,0.159807648
6.245000000,-0.330573839,9.089835264,3.482197612,0.122605253,0.031990679,0.166135049
6.250000000,-0.323485589,9.178233338,3.434668751,0.123948973,0.032147454,0.155870273
6.255000000,-0.387911341,9.188100296,3.385280473,0.128296928,0.029423853,0.154627377
6.260000000,-0.363926998,9.158283302,3.508895695,0.124280877,0.038328258,0.157760829
6.265000000,-0.327808236,9.241525209,3.489518019,0.117542538,0.025971615,0.160166519
6.270000000,-0.308497814,9.178757606,3.464362546,0.123754476,0.037458992,0.164462405
6.275000000,-0.360124673,9.315303834,3.431635148,0.124468311,0.028487300,0.153740033
6.280000000,-0.317528344,9.218736277,3.466562234,0.130455094,0.029662870,0.162317647
6.285000000,-0.210770122,9.119571686,3.440362913,0.125965254,0.031402125,0.162060072
6.290000000,-0.299427869,9.156470700,3.435983297,0.118614041,0.033007896,0.159527697
6.295000000,-0.268943697,9.293500205,3.489432709,0.124734187,0.030896754,0.157946654
6.300000000,-0.340633023,9.258792925,3.408675322,0.125998480,0.024241492,0.147901035
6.305000000,-0.239603844,9.231215532,3.479507828,0.122212685,0.024719014,0.164746527
6.310000000,-0.207646241,9.174580502,3.367658382,0.126785092,0.026880621,0.154538110
6.315000000,-0.306122270,9.195013344,3.363561432,0.131089518,0.033813747,0.165753670
6.320000000,-0.322695178,9.189038754,3.281131474,0.119328964,0.036402188,0.149494918
6.325000000,-0.262419807,9.278466079,3.382002207,0.121446242,0.025077907,0.158729801
6.330000000,-0.156742107,9.255989635,3.390063488,0.120928262,0.029327660,0.148961806
6.335000000,-0.349970146,9.192849143,3.407799728,0.117135408,0.026436642,0.166042459
6.340000000,-0.206334931,9.223570466,3.360781776,0.123062632,0.032528071,0.160304844
6.345000000,-0.215241080,9.209226490,3.375408424,0.124285981,0.025345303,0.163672093
6.350000000,-0.194827664,9.265494776,3.340861107,0.120104027,0.026317261,0.154014332
6.355000000,-0.214146652,9.288030379,3.334114647,0.118728302,0.029162681,0.163385777
6.360000000,-0.125009202,9.206568754,3.370684131,0.119109365,0.023879546,0.152250596
6.365000000,-0.210374115,9.255149690,3.285810754,0.115202642,0.030690949,0.152860456
6.370000000,-0.198540397,9.259212931,3.247039300,0.118485221,0.021691723,0.154778900
6.375000000,-0.130747965,9.271403637,3.328153066,0.119892588,0.034780901,0.151535167
6.380000000,-0.244248342,9.266259014,3.349700427,0.122185355,0.020006671,0.155780631
6.385000000,-0.254012982,9.289770805,3.355801973,0.118378993,0.026652116,0.150181431
6.390000000,-0.213698361,9.163540660,3.251819030,0.113222779,0.027685974,0.165018797
6.395000000,-0.217071054,9.264389012,3.253527211,0.114459552,0.029099254,0.150214765
6.400000000,-0.200077767,9.258942035,3.273456750,0.114734280,0.023863635,0.152768601
6.405000000,-0.150078784,9.145998426,3.230675096,0.115864665,0.024403925,0.146037864
6.410000000,-0.079721128,9.201985928,3.233995426,0.113253718,0.024015160,0.160577072
6.415000000,-0.219165328,9.269107738,3.301429075,0.124438131,0.022654436,0.155221105
6.420000000,-0.023664872,9.287459000,3.281044082,0.110393192,0.023635269,0.163242842
6.425000000,-0.201154318,9.260080280,3.268908069,0.118025191,0.027952960,0.149263233
6.430000000,-0.108589382,9.286569751,3.244580133,0.119163681,0.022448682,0.154325371
6.435000000,-0.055160145,9.332944046,3.357986275,0.116042416,0.025381971,0.150730574
6.440000000,-0.060228692,9.319127969,3.278762171,0.112812531,0.021797388,0.147527661
6.445000000,-0.232481611,9.273541958,3.265016775,0.122653046,0.028721274,0.155776124
6.450000000,-0.133099756,9.248041681,3.191275737,0.107812790,0.023703176,0.144172850
6.455000000,-0.138357982,9.252979674,3.254083714,0.113646321,0.019456408,0.156084644
6.460000000,-0.071270631,9.250976744,3.362269887,0.112901296,0.022036742,0.159384147
6.465000000,-0.098396634,9.285910036,3.293200767,0.106923381,0.022823458,0.151508125
6.470000000,-0.092962874,9.281490338,3.198660205,0.112903627,0.026294735,0.150605476
6.475000000,-0.010546268,9.250459903,3.255317406,0.116047452,0.022776929,0.153276556
6.480000000,0.038906647,9.224678721,3.198065004,0.106900603,0.022783688,0.151973922
6.485000000,-0.059344670,9.249855772,3.223863783,0.116179363,0.018901684,0.151297604
6.490000000,-0.029586658,9.306281835,3.090717910,0.108217587,0.018210039,0.160564068
6.495000000,0.033237995,9.343951028,3.148716072,0.110994279,0.026224481,0.154094742
6.500000000,-0.028810135,9.273164083,3.255860160,0.118133495,0.024481521,0.152556870
6.505000000,-0.079866870,9.291108257,3.094149278,0.107079727,0.020261758,0.147314598
6.510000000,-0.024163278,9.291880850,3.167281606,0.114701619,0.021005773,0.142914166
6.515000000,0.097011651,9.328723121,3.154982792,0.111975031,0.015370394,0.155347950
6.520000000,0.043838195,9.363608210,3.165397357,0.107897530,0.022176170,0.149763044
6.525000000,0.041321580,9.350936386,3.166229074,0.113748771,0.013487433,0.160700310
6.530000000,0.001842538,9.270407128,3.257128413,0.106120467,0.022253961,0.157456848
6.535000000,0.044742676,9.404889454,3.164591055,0.109138945,0.016961978,0.151857354
6.540000000,0.098806292,9.323246998,3.135145521,0.113361113,0.011003994,0.144687864
6.545000000,0.104826906,9.293393554,3.142951777,0.108318397,0.021708950,0.149818325
6.550000000,0.093317196,9.411725279,3.105126582,0.109366344,0.011045722,0.152722821
6.555000000,0.048489901,9.290952923,3.233662617,0.109365213,0.024442297,0.151159510
6.560000000,0.110375950,9.351448948,3.106642044,0.108060394,0.016851303,0.149580988
6.565000000,0.100690429,9.290820017,3.159598499,0.110747381,0.016734869,0.146046913
6.570000000,0.039071806,9.339466703,3.181342553,0.107858709,0.017310047,0.148576681
6.575000000,0.118959897,9.320272269,3.140173614,0.113120104,0.025207804,0.152082445
6.580000000,0.063331377,9.371555125,3.131284884,0.107023667,0.023329668,0.134947998
6.585000000,0.106428647,9.351599203,3.044927490,0.106316465,0.019740033,0.153355544
6.590000000,0.103780191,9.337426436,3.094897938,0.102406597,0.013209810,0.136749008
6.595000000,0.118468108,9.435695253,3.078257793,0.106523375,0.024715571,0.151398494
6.600000000,0.084872728,9.293119330,3.126034497,0.098245480,0.011195014,0.146080193
6.605000000,0.109091044,9.361151957,3.095015896,0.107827192,0.008413389,0.141289038
6.610000000,0.065062424,9.350462411,3.023458266,0.108862266,0.015401718,0.153266533
6.615000000,0.180477214,9.386550322,3.004455432,0.107397123,0.025943472,0.149309162
6.620000000,0.229612285,9.379414504,3.030483810,0.108997418,0.007036141,0.141805273
6.625000000,0.133452844,9.315149346,3.118005347,0.108049025,0.012950461,0.151302773
6.630000000,0.087176558,9.250699267,3.026374388,0.097115614,0.022978420,0.153781318
6.635000000,0.129002695,9.357051236,2.988088547,0.100360408,0.011533630,0.153897026
6.640000000,0.143221350,9.236279110,3.097000869,0.107425160,0.020538382,0.141472427
6.645000000,0.171394238,9.392319028,3.050393367,0.098374914,0.013832238,0.145039395
6.650000000,0.171268353,9.359583909,3.036558524,0.103806477,0.019876304,0.141604168
6.655000000,0.228841825,9.281685990,3.038572213,0.109334620,0.007876305,0.145984565
6.660000000,0.136507756,9.346517170,2.952251228,0.098643705,0.009984522,0.151353031
6.665000000,0.133205303,9.303868771,2.969559906,0.096907090,0.008075194,0.147327553
6.670000000,0.224146583,9.359505699,3.055384398,0.106078860,0.007105931,0.148090435
6.675000000,0.208162710,9.441793469,3.015493678,0.107070302,0.006112871,0.150704052
6.680000000,0.227308113,9.341830053,3.000178446,0.095485345,0.015877051,0.146017491
6.685000000,0.275479149,9.374351856,2.951630369,0.102320934,0.012604220,0.145058164
6.690000000,0.200678986,9.270107167,2.996185165,0.097022185,0.013742010,0.151456086
6.695000000,0.203662623,9.385005787,3.001667893,0.107352242,0.007876326,0.149438666
6.700000000,0.281008341,9.368003702,3.056021791,0.098171797,0.012585178,0.144560167
6.705000000,0.181616007,9.497249200,2.983137681,0.093881124,0.010818175,0.145883701
6.710000000,0.265234803,9.407666905,3.075684586,0.103313779,0.006453684,0.144270668
6.715000000,0.148788098,9.273095140,2.939298317,0.102974188,0.014519586,0.148691161
6.720000000,0.237711359,9.436601558,2.953390057,0.094627511,0.014946794,0.140476490
6.725000000,0.156316912,9.286377481,2.851594685,0.096097224,0.007095781,0.140437644
6.730000000,0.180968117,9.383891922,3.008779636,0.092774109,0.012473100,0.140799361
6.735000000,0.215227965,9.354324148,3.015053663,0.105107360,0.008629083,0.129590633
6.740000000,0.301617571,9.418670369,2.923821353,0.097276214,0.013387584,0.151751851
6.745000000,0.308752494,9.372784342,2.873368013,0.101681295,0.018737351,0.140671659
6.750000000,0.312753296,9.425278030,2.984856688,0.091783332,0.010478455,0.150954485
6.755000000,0.334775835,9.415704091,2.939155715,0.094275866,0.016604242,0.144649011
6.760000000,0.304969836,9.447634569,2.912401092,0.103048046,0.007201585,0.141191138
6.765000000,0.267195671,9.383013374,2.986873351,0.092782339,0.008780833,0.136147559
6.770000000,0.293340806,9.434276277,2.883861967,0.091602395,0.003133641,0.141969996
6.775000000,0.280511645,9.439440482,2.964002908,0.089765453,0.006076332,0.136341962
6.780000000,0.393364892,9.400734833,2.996442839,0.090419064,0.012311916,0.148726503
6.785000000,0.329685262,9.418259093,2.906242437,0.088460531,0.000644273,0.131343932
6.790000000,0.363283988,9.377832532,2.895278663,0.087092099,0.010476962,0.138939944
6.795000000,0.381418232,9.359926734,2.901826999,0.097408900,0.008002486,0.145468048
6.800000000,0.357346942,9.442000456,2.877052677,0.088916714,0.002142423,0.149093971
6.805000000,0.409488911,9.334903869,2.853416199,0.085131335,0.008055833,0.144468309
6.810000000,0.260733849,9.413999417,2.877704917,0.095493908,0.013049141,0.136887154
6.815000000,0.422140172,9.365013232,2.873245536,0.086325688,0.008772933,0.136415105
6.820000000,0.286412402,9.370892028,2.918433179,0.095948549,0.011049788,0.144825500
6.825000000,0.320301806,9.383281252,2.937153800,0.086104482,0.005891146,0.141670565
6.830000000,0.332488073,9.349241056,2.826986881,0.095222857,0.006837873,0.141046984
6.835000000,0.360661599,9.283868354,2.876931531,0.083957296,0.012501098,0.144824699
6.840000000,0.434534451,9.413702100,2.893961510,0.079395596,0.004055878,0.143846416
6.845000000,0.383501758,9.416537990,2.900883410,0.082995722,-0.001379556,0.140641124
6.850000000,0.505120757,9.419814378,2.807803546,0.095906019,0.005230770,0.143138856
6.855000000,0.365000252,9.337063886,2.784073138,0.089598195,0.001296783,0.139623106
6.860000000,0.376333762,9.393556914,2.874617110,0.091589710,0.001660324,0.142204874
6.865000000,0.334782710,9.318354570,2.776733227,0.094114167,0.011836923,0.146711794
6.870000000,0.475316987,9.390198271,2.761045375,0.093904231,-0.007069916,0.138257264
6.875000000,0.525191680,9.472153300,2.841957198,0.088052765,0.001425932,0.131042871
6.880000000,0.440994584,9.384995572,2.807698743,0.087079865,0.005639130,0.139053751
6.885000000,0.523950953,9.358075157,2.714549011,0.083336350,0.005728943,0.140490855
6.890000000,0.437341212,9.352072981,2.866565875,0.083037624,0.002292954,0.140234958
6.895000000,0.449852517,9.424807530,2.782229341,0.085938045,0.010331962,0.146208529
6.900000000,0.409316809,9.412246820,2.883186225,0.082032631,-0.004549939,0.139386653
6.905000000,0.407199393,9.393697485,2.824326680,0.082632484,0.002218448,0.135135156
6.910000000,0.477605874,9.397093069,2.880165095,0.088196099,0.004687336,0.135904296
6.915000000,0.495191818,9.386820607,2.800030516,0.086708445,0.006810740,0.137360487
6.920000000,0.409646987,9.475110324,2.901438003,0.091478029,-0.000411426,0.142857519
6.925000000,0.489603795,9.405489595,2.708383151,0.082783166,-0.000144678,0.155711497
6.930000000,0.465223502,9.467695206,2.831957926,0.088831711,-0.003556057,0.147167848
6.935000000,0.378832765,9.462964620,2.816350919,0.083364864,0.003851664,0.134587975
6.940000000,0.453979872,9.609929420,2.803287816,0.081526127,-0.003709342,0.141206677
6.945000000,0.605420978,9.351374672,2.768461596,0.077808873,-0.009059815,0.136117897
6.950000000,0.637052862,9.443406860,2.746974084,0.076657765,0.007133114,0.144745432
6.955000000,0.537842037,9.468725981,2.776503444,0.083905943,-0.008873729,0.132920841
6.960000000,0.621066892,9.369614481,2.708886388,0.083204168,-0.001535508,0.137012164
6.965000000,0.491870484,9.463727773,2.819542164,0.078670387,0.007454277,0.138549191
6.970000000,0.603972940,9.517348457,2.792998320,0.075046996,-0.003380401,0.138267517
6.975000000,0.509547252,9.361726756,2.813294714,0.082011383,-0.009005621,0.138602999
6.980000000,0.552172950,9.356964454,2.735100897,0.083232398,-0.003240738,0.135224768
6.985000000,0.545977993,9.409223588,2.733738434,0.072981130,0.001991002,0.136292681
6.990000000,0.516277250,9.400074511,2.724020685,0.072538435,-0.005603689,0.131849053
6.995000000,0.590940304,9.417079216,2.662101011,0.074716576,0.004242301,0.134024268
7.000000000,0.516958953,9.384174932,2.756012513,0.077875232,-0.002167279,0.132930983
7.005000000,0.663707630,9.403201801,2.805602627,0.072297739,0.003296512,0.146881117
7.010000000,0.541630196,9.415318550,2.582042287,0.077332263,-0.000275550,0.127023336
7.015000000,0.547204155,9.425864037,2.727723778,0.078907726,-0.000276084,0.137399988
7.020000000,0.664730303,9.543261648,2.633776290,0.067680256,-0.002821806,0.140038730
7.025000000,0.657310211,9.415330231,2.623832876,0.077224266,-0.011074445,0.146604366
7.030000000,0.554183021,9.410487776,2.778655253,0.073037488,0.004796932,0.138902359
7.035000000,0.631503120,9.500975822,2.668678126,0.069952355,0.000561637,0.128758491
7.040000000,0.552810151,9.503379410,2.768241413,0.070765566,-0.002850732,0.130065344
7.045000000,0.571183688,9.438962367,2.676594065,0.070430022,-0.005187095,0.135448448
7.050000000,0.591741440,9.467980463,2.644136351,0.066731055,-0.018976239,0.135290129
7.055000000,0.616380830,9.390649516,2.776896393,0.074893786,-0.002029116,0.136888071
